File: 循环伏安/analysis/114514/oxide_LSV.txt
Nov. 2, 2023   13:20:10
Linear Sweep Voltammetry
File: c:\users\dell\desktop\电化学数据\114514\oxide_lsv.txt
Data Source:  Experiment
Instrument Model:  CHI600B
Header:
Note:

Init E (V) = 1.25
Final E (V) = -0.3
Scan Rate (V/s) = 0.01
Sample Interval (V) = 0.001
Quiet Time (sec) = 2
Sensitivity (A/V) = 1e-5

Ep = 0.346V
ip = 6.827e-6A
Ah = 4.496e-5C

Ep = -0.299V
ip = 3.338e-7A
Ah = 1.452e-5C

Potential/V, Current/A, Charge/C

Segment 1:
1.249, -5.074e-6, -5.074e-7
1.247, -2.814e-6, -1.141e-6
1.245, -2.117e-6, -1.593e-6
1.243, -1.737e-6, -1.956e-6
1.241, -1.501e-6, -2.267e-6
1.239, -1.336e-6, -2.542e-6
1.237, -1.204e-6, -2.789e-6
1.235, -1.101e-6, -3.014e-6
1.233, -1.021e-6, -3.222e-6
1.231, -9.486e-7, -3.416e-6
1.229, -8.921e-7, -3.597e-6
1.227, -8.427e-7, -3.767e-6
1.225, -7.949e-7, -3.928e-6
1.223, -7.496e-7, -4.081e-6
1.221, -7.176e-7, -4.227e-6
1.219, -6.930e-7, -4.366e-6
1.217, -6.506e-7, -4.499e-6
1.215, -6.374e-7, -4.627e-6
1.213, -6.010e-7, -4.748e-6
1.211, -5.955e-7, -4.868e-6
1.209, -5.614e-7, -4.982e-6
1.207, -5.503e-7, -5.092e-6
1.205, -5.329e-7, -5.200e-6
1.203, -5.050e-7, -5.302e-6
1.201, -5.007e-7, -5.402e-6
1.199, -4.857e-7, -5.500e-6
1.197, -4.615e-7, -5.594e-6
1.195, -4.536e-7, -5.685e-6
1.193, -4.516e-7, -5.775e-6
1.191, -4.397e-7, -5.864e-6
1.189, -4.173e-7, -5.948e-6
1.187, -4.062e-7, -6.030e-6
1.185, -4.043e-7, -6.111e-6
1.183, -4.035e-7, -6.192e-6
1.181, -3.992e-7, -6.272e-6
1.179, -3.871e-7, -6.350e-6
1.177, -3.707e-7, -6.425e-6
1.175, -3.600e-7, -6.497e-6
1.173, -3.562e-7, -6.568e-6
1.171, -3.551e-7, -6.639e-6
1.169, -3.531e-7, -6.710e-6
1.167, -3.461e-7, -6.780e-6
1.165, -3.256e-7, -6.846e-6
1.163, -2.919e-7, -6.906e-6
1.161, -2.564e-7, -6.958e-6
1.159, -2.300e-7, -7.005e-6
1.157, -2.163e-7, -7.049e-6
1.155, -2.110e-7, -7.091e-6
1.153, -2.091e-7, -7.133e-6
1.151, -2.080e-7, -7.175e-6
1.149, -2.060e-7, -7.216e-6
1.147, -2.031e-7, -7.257e-6
1.145, -1.990e-7, -7.297e-6
1.143, -1.945e-7, -7.336e-6
1.141, -1.886e-7, -7.374e-6
1.139, -1.822e-7, -7.410e-6
1.137, -1.753e-7, -7.446e-6
1.135, -1.690e-7, -7.480e-6
1.133, -1.647e-7, -7.513e-6
1.131, -1.623e-7, -7.546e-6
1.129, -1.610e-7, -7.578e-6
1.127, -1.604e-7, -7.610e-6
1.125, -1.602e-7, -7.642e-6
1.123, -1.601e-7, -7.674e-6
1.121, -1.598e-7, -7.706e-6
1.119, -1.595e-7, -7.738e-6
1.117, -1.589e-7, -7.770e-6
1.115, -1.579e-7, -7.801e-6
1.113, -1.560e-7, -7.833e-6
1.111, -1.537e-7, -7.864e-6
1.109, -1.501e-7, -7.894e-6
1.107, -1.459e-7, -7.923e-6
1.105, -1.413e-7, -7.952e-6
1.103, -1.361e-7, -7.979e-6
1.101, -1.314e-7, -8.006e-6
1.099, -1.271e-7, -8.031e-6
1.097, -1.228e-7, -8.056e-6
1.095, -1.195e-7, -8.080e-6
1.093, -1.169e-7, -8.103e-6
1.091, -1.150e-7, -8.126e-6
1.089, -1.136e-7, -8.149e-6
1.087, -1.127e-7, -8.172e-6
1.085, -1.121e-7, -8.194e-6
1.083, -1.118e-7, -8.217e-6
1.081, -1.115e-7, -8.239e-6
1.079, -1.113e-7, -8.261e-6
1.077, -1.112e-7, -8.283e-6
1.075, -1.109e-7, -8.306e-6
1.073, -1.107e-7, -8.328e-6
1.071, -1.103e-7, -8.350e-6
1.069, -1.098e-7, -8.372e-6
1.067, -1.092e-7, -8.394e-6
1.065, -1.083e-7, -8.416e-6
1.063, -1.072e-7, -8.437e-6
1.061, -1.058e-7, -8.458e-6
1.059, -1.044e-7, -8.479e-6
1.057, -1.026e-7, -8.500e-6
1.055, -1.005e-7, -8.521e-6
1.053, -9.826e-8, -8.541e-6
1.051, -9.620e-8, -8.560e-6
1.049, -9.380e-8, -8.579e-6
1.047, -9.112e-8, -8.598e-6
1.045, -8.868e-8, -8.616e-6
1.043, -8.578e-8, -8.633e-6
1.041, -8.319e-8, -8.650e-6
1.039, -8.101e-8, -8.667e-6
1.037, -7.846e-8, -8.683e-6
1.035, -7.618e-8, -8.699e-6
1.033, -7.433e-8, -8.714e-6
1.031, -7.243e-8, -8.728e-6
1.029, -7.089e-8, -8.743e-6
1.027, -6.924e-8, -8.757e-6
1.025, -6.809e-8, -8.771e-6
1.023, -6.675e-8, -8.784e-6
1.021, -6.600e-8, -8.797e-6
1.019, -6.520e-8, -8.811e-6
1.017, -6.459e-8, -8.824e-6
1.015, -6.411e-8, -8.836e-6
1.013, -6.367e-8, -8.849e-6
1.011, -6.338e-8, -8.862e-6
1.009, -6.313e-8, -8.875e-6
1.007, -6.294e-8, -8.887e-6
1.005, -6.275e-8, -8.900e-6
1.003, -6.268e-8, -8.912e-6
1.001, -6.257e-8, -8.925e-6
0.999, -6.247e-8, -8.937e-6
0.997, -6.243e-8, -8.950e-6
0.995, -6.228e-8, -8.962e-6
0.993, -6.218e-8, -8.975e-6
0.991, -6.206e-8, -8.987e-6
0.989, -6.188e-8, -9.000e-6
0.987, -6.167e-8, -9.012e-6
0.985, -6.143e-8, -9.024e-6
0.983, -6.113e-8, -9.036e-6
0.981, -6.091e-8, -9.049e-6
0.979, -6.038e-8, -9.061e-6
0.977, -5.967e-8, -9.073e-6
0.975, -5.893e-8, -9.084e-6
0.973, -5.832e-8, -9.096e-6
0.971, -5.732e-8, -9.108e-6
0.969, -5.617e-8, -9.119e-6
0.967, -5.504e-8, -9.130e-6
0.965, -5.378e-8, -9.141e-6
0.963, -5.238e-8, -9.151e-6
0.961, -5.057e-8, -9.161e-6
0.959, -4.848e-8, -9.171e-6
0.957, -4.670e-8, -9.181e-6
0.955, -4.525e-8, -9.190e-6
0.953, -4.281e-8, -9.198e-6
0.951, -4.098e-8, -9.206e-6
0.949, -3.845e-8, -9.214e-6
0.947, -3.732e-8, -9.222e-6
0.945, -3.463e-8, -9.229e-6
0.943, -3.168e-8, -9.235e-6
0.941, -3.015e-8, -9.241e-6
0.939, -2.852e-8, -9.247e-6
0.937, -2.661e-8, -9.252e-6
0.935, -2.494e-8, -9.257e-6
0.933, -2.321e-8, -9.262e-6
0.931, -2.212e-8, -9.266e-6
0.929, -2.062e-8, -9.270e-6
0.927, -1.938e-8, -9.274e-6
0.925, -1.830e-8, -9.278e-6
0.923, -1.766e-8, -9.282e-6
0.921, -1.685e-8, -9.285e-6
0.919, -1.619e-8, -9.288e-6
0.917, -1.576e-8, -9.291e-6
0.915, -1.531e-8, -9.294e-6
0.913, -1.492e-8, -9.297e-6
0.911, -1.467e-8, -9.300e-6
0.909, -1.436e-8, -9.303e-6
0.907, -1.423e-8, -9.306e-6
0.905, -1.407e-8, -9.309e-6
0.903, -1.388e-8, -9.312e-6
0.901, -1.380e-8, -9.314e-6
0.899, -1.370e-8, -9.317e-6
0.897, -1.356e-8, -9.320e-6
0.895, -1.347e-8, -9.323e-6
0.893, -1.336e-8, -9.325e-6
0.891, -1.321e-8, -9.328e-6
0.889, -1.313e-8, -9.331e-6
0.887, -1.290e-8, -9.333e-6
0.885, -1.275e-8, -9.336e-6
0.883, -1.247e-8, -9.338e-6
0.881, -1.233e-8, -9.341e-6
0.879, -1.193e-8, -9.343e-6
0.877, -1.174e-8, -9.345e-6
0.875, -1.119e-8, -9.348e-6
0.873, -1.069e-8, -9.350e-6
0.871, -1.014e-8, -9.352e-6
0.869, -9.568e-9, -9.354e-6
0.867, -8.862e-9, -9.355e-6
0.865, -8.036e-9, -9.357e-6
0.863, -7.105e-9, -9.358e-6
0.861, -6.161e-9, -9.360e-6
0.859, -4.926e-9, -9.361e-6
0.857, -3.625e-9, -9.361e-6
0.855, -2.377e-9, -9.362e-6
0.853, -5.805e-10, -9.362e-6
0.851, 5.487e-10, -9.362e-6
0.849, 2.523e-9, -9.361e-6
0.847, 3.904e-9, -9.360e-6
0.845, 4.987e-9, -9.359e-6
0.843, 7.212e-9, -9.358e-6
0.841, 9.543e-9, -9.356e-6
0.839, 1.143e-8, -9.354e-6
0.837, 1.294e-8, -9.351e-6
0.835, 1.491e-8, -9.348e-6
0.833, 1.600e-8, -9.345e-6
0.831, 1.849e-8, -9.341e-6
0.829, 2.009e-8, -9.337e-6
0.827, 2.165e-8, -9.333e-6
0.825, 2.333e-8, -9.328e-6
0.823, 2.459e-8, -9.323e-6
0.821, 2.558e-8, -9.318e-6
0.819, 2.597e-8, -9.312e-6
0.817, 2.842e-8, -9.307e-6
0.815, 2.925e-8, -9.301e-6
0.813, 3.002e-8, -9.295e-6
0.811, 3.099e-8, -9.289e-6
0.809, 3.181e-8, -9.282e-6
0.807, 3.229e-8, -9.276e-6
0.805, 3.281e-8, -9.269e-6
0.803, 3.327e-8, -9.263e-6
0.801, 3.359e-8, -9.256e-6
0.799, 3.393e-8, -9.249e-6
0.797, 3.416e-8, -9.242e-6
0.795, 3.439e-8, -9.235e-6
0.793, 3.447e-8, -9.229e-6
0.791, 3.475e-8, -9.222e-6
0.789, 3.482e-8, -9.215e-6
0.787, 3.491e-8, -9.208e-6
0.785, 3.500e-8, -9.201e-6
0.783, 3.505e-8, -9.194e-6
0.781, 3.510e-8, -9.187e-6
0.779, 3.515e-8, -9.180e-6
0.777, 3.519e-8, -9.173e-6
0.775, 3.522e-8, -9.166e-6
0.773, 3.524e-8, -9.158e-6
0.771, 3.530e-8, -9.151e-6
0.769, 3.534e-8, -9.144e-6
0.767, 3.542e-8, -9.137e-6
0.765, 3.544e-8, -9.130e-6
0.763, 3.553e-8, -9.123e-6
0.761, 3.569e-8, -9.116e-6
0.759, 3.581e-8, -9.109e-6
0.757, 3.607e-8, -9.102e-6
0.755, 3.646e-8, -9.094e-6
0.753, 3.665e-8, -9.087e-6
0.751, 3.711e-8, -9.080e-6
0.749, 3.759e-8, -9.072e-6
0.747, 3.816e-8, -9.064e-6
0.745, 3.908e-8, -9.057e-6
0.743, 3.995e-8, -9.049e-6
0.741, 4.064e-8, -9.041e-6
0.739, 4.215e-8, -9.032e-6
0.737, 4.374e-8, -9.024e-6
0.735, 4.564e-8, -9.014e-6
0.733, 4.760e-8, -9.005e-6
0.731, 4.941e-8, -8.995e-6
0.729, 5.259e-8, -8.985e-6
0.727, 5.484e-8, -8.974e-6
0.725, 5.737e-8, -8.963e-6
0.723, 5.936e-8, -8.951e-6
0.721, 6.279e-8, -8.938e-6
0.719, 6.546e-8, -8.925e-6
0.717, 6.776e-8, -8.912e-6
0.715, 7.033e-8, -8.898e-6
0.713, 7.234e-8, -8.883e-6
0.711, 7.454e-8, -8.869e-6
0.709, 7.589e-8, -8.854e-6
0.707, 7.764e-8, -8.838e-6
0.705, 7.931e-8, -8.822e-6
0.703, 8.034e-8, -8.806e-6
0.701, 8.112e-8, -8.790e-6
0.699, 8.198e-8, -8.774e-6
0.697, 8.248e-8, -8.757e-6
0.695, 8.293e-8, -8.740e-6
0.693, 8.329e-8, -8.724e-6
0.691, 8.337e-8, -8.707e-6
0.689, 8.374e-8, -8.690e-6
0.687, 8.388e-8, -8.674e-6
0.685, 8.400e-8, -8.657e-6
0.683, 8.419e-8, -8.640e-6
0.681, 8.435e-8, -8.623e-6
0.679, 8.459e-8, -8.606e-6
0.677, 8.483e-8, -8.589e-6
0.675, 8.528e-8, -8.572e-6
0.673, 8.573e-8, -8.555e-6
0.671, 8.629e-8, -8.538e-6
0.669, 8.710e-8, -8.521e-6
0.667, 8.789e-8, -8.503e-6
0.665, 8.963e-8, -8.485e-6
0.663, 9.080e-8, -8.467e-6
0.661, 9.266e-8, -8.449e-6
0.659, 9.441e-8, -8.430e-6
0.657, 9.706e-8, -8.411e-6
0.655, 1.000e-7, -8.392e-6
0.653, 1.029e-7, -8.371e-6
0.651, 1.053e-7, -8.351e-6
0.649, 1.085e-7, -8.329e-6
0.647, 1.116e-7, -8.307e-6
0.645, 1.150e-7, -8.285e-6
0.643, 1.174e-7, -8.262e-6
0.641, 1.205e-7, -8.238e-6
0.639, 1.227e-7, -8.214e-6
0.637, 1.250e-7, -8.189e-6
0.635, 1.271e-7, -8.164e-6
0.633, 1.287e-7, -8.138e-6
0.631, 1.300e-7, -8.112e-6
0.629, 1.309e-7, -8.086e-6
0.627, 1.317e-7, -8.060e-6
0.625, 1.321e-7, -8.034e-6
0.623, 1.324e-7, -8.007e-6
0.621, 1.326e-7, -7.981e-6
0.619, 1.328e-7, -7.954e-6
0.617, 1.330e-7, -7.928e-6
0.615, 1.332e-7, -7.901e-6
0.613, 1.335e-7, -7.874e-6
0.611, 1.339e-7, -7.848e-6
0.609, 1.347e-7, -7.821e-6
0.607, 1.360e-7, -7.794e-6
0.605, 1.381e-7, -7.766e-6
0.603, 1.409e-7, -7.738e-6
0.601, 1.445e-7, -7.709e-6
0.599, 1.495e-7, -7.680e-6
0.597, 1.546e-7, -7.649e-6
0.595, 1.599e-7, -7.617e-6
0.593, 1.655e-7, -7.584e-6
0.591, 1.707e-7, -7.550e-6
0.589, 1.740e-7, -7.516e-6
0.587, 1.771e-7, -7.480e-6
0.585, 1.793e-7, -7.444e-6
0.583, 1.804e-7, -7.408e-6
0.581, 1.811e-7, -7.372e-6
0.579, 1.815e-7, -7.336e-6
0.577, 1.818e-7, -7.300e-6
0.575, 1.822e-7, -7.263e-6
0.573, 1.826e-7, -7.227e-6
0.571, 1.838e-7, -7.190e-6
0.569, 1.860e-7, -7.153e-6
0.567, 1.897e-7, -7.115e-6
0.565, 1.949e-7, -7.076e-6
0.563, 2.024e-7, -7.036e-6
0.561, 2.104e-7, -6.995e-6
0.559, 2.177e-7, -6.951e-6
0.557, 2.236e-7, -6.907e-6
0.555, 2.273e-7, -6.862e-6
0.553, 2.293e-7, -6.816e-6
0.551, 2.302e-7, -6.770e-6
0.549, 2.305e-7, -6.724e-6
0.547, 2.307e-7, -6.678e-6
0.545, 2.312e-7, -6.631e-6
0.543, 2.325e-7, -6.585e-6
0.541, 2.364e-7, -6.538e-6
0.539, 2.436e-7, -6.490e-6
0.537, 2.535e-7, -6.439e-6
0.535, 2.653e-7, -6.387e-6
0.533, 2.738e-7, -6.332e-6
0.531, 2.776e-7, -6.277e-6
0.529, 2.791e-7, -6.221e-6
0.527, 2.799e-7, -6.165e-6
0.525, 2.821e-7, -6.109e-6
0.523, 2.880e-7, -6.052e-6
0.521, 2.987e-7, -5.993e-6
0.519, 3.114e-7, -5.932e-6
0.517, 3.215e-7, -5.868e-6
0.515, 3.268e-7, -5.803e-6
0.513, 3.281e-7, -5.737e-6
0.511, 3.296e-7, -5.672e-6
0.509, 3.368e-7, -5.605e-6
0.507, 3.551e-7, -5.535e-6
0.505, 3.717e-7, -5.461e-6
0.503, 3.766e-7, -5.386e-6
0.501, 3.779e-7, -5.310e-6
0.499, 3.871e-7, -5.233e-6
0.497, 4.115e-7, -5.152e-6
0.495, 4.248e-7, -5.068e-6
0.493, 4.261e-7, -4.983e-6
0.491, 4.334e-7, -4.896e-6
0.489, 4.632e-7, -4.805e-6
0.487, 4.745e-7, -4.711e-6
0.485, 4.818e-7, -4.615e-6
0.483, 5.116e-7, -4.514e-6
0.481, 5.234e-7, -4.410e-6
0.479, 5.360e-7, -4.304e-6
0.477, 5.703e-7, -4.191e-6
0.475, 5.794e-7, -4.076e-6
0.473, 6.187e-7, -3.954e-6
0.471, 6.250e-7, -3.829e-6
0.469, 6.679e-7, -3.697e-6
0.467, 6.907e-7, -3.561e-6
0.465, 7.194e-7, -3.418e-6
0.463, 7.647e-7, -3.268e-6
0.461, 8.001e-7, -3.111e-6
0.459, 8.255e-7, -2.947e-6
0.457, 8.736e-7, -2.773e-6
0.455, 9.167e-7, -2.591e-6
0.453, 9.663e-7, -2.399e-6
0.451, 1.017e-6, -2.197e-6
0.449, 1.082e-6, -1.983e-6
0.447, 1.149e-6, -1.757e-6
0.445, 1.227e-6, -1.516e-6
0.443, 1.302e-6, -1.260e-6
0.441, 1.379e-6, -9.879e-7
0.439, 1.456e-6, -7.010e-7
0.437, 1.547e-6, -3.961e-7
0.435, 1.641e-6, -7.241e-8
0.433, 1.741e-6, 2.708e-7
0.431, 1.849e-6, 6.351e-7
0.429, 1.966e-6, 1.022e-6
0.427, 2.089e-6, 1.434e-6
0.425, 2.217e-6, 1.871e-6
0.423, 2.358e-6, 2.335e-6
0.421, 2.504e-6, 2.829e-6
0.419, 2.657e-6, 3.353e-6
0.417, 2.827e-6, 3.910e-6
0.415, 2.993e-6, 4.500e-6
0.413, 3.174e-6, 5.126e-6
0.411, 3.355e-6, 5.788e-6
0.409, 3.546e-6, 6.488e-6
0.407, 3.742e-6, 7.226e-6
0.405, 3.942e-6, 8.005e-6
0.403, 4.145e-6, 8.824e-6
0.401, 4.366e-6, 9.685e-6
0.399, 4.573e-6, 1.059e-5
0.397, 4.779e-6, 1.153e-5
0.395, 4.984e-6, 1.252e-5
0.393, 5.185e-6, 1.355e-5
0.391, 5.380e-6, 1.461e-5
0.389, 5.570e-6, 1.572e-5
0.387, 5.750e-6, 1.686e-5
0.385, 5.919e-6, 1.804e-5
0.383, 6.080e-6, 1.924e-5
0.381, 6.232e-6, 2.048e-5
0.379, 6.374e-6, 2.175e-5
0.377, 6.506e-6, 2.305e-5
0.375, 6.626e-6, 2.437e-5
0.373, 6.734e-6, 2.571e-5
0.371, 6.831e-6, 2.707e-5
0.369, 6.919e-6, 2.845e-5
0.367, 6.992e-6, 2.984e-5
0.365, 7.063e-6, 3.125e-5
0.363, 7.114e-6, 3.267e-5
0.361, 7.161e-6, 3.410e-5
0.359, 7.200e-6, 3.554e-5
0.357, 7.215e-6, 3.698e-5
0.355, 7.253e-6, 3.843e-5
0.353, 7.262e-6, 3.988e-5
0.351, 7.264e-6, 4.133e-5
0.349, 7.268e-6, 4.279e-5
0.347, 7.273e-6, 4.424e-5
0.345, 7.273e-6, 4.569e-5
0.343, 7.265e-6, 4.715e-5
0.341, 7.262e-6, 4.860e-5
0.339, 7.262e-6, 5.005e-5
0.337, 7.257e-6, 5.151e-5
0.335, 7.235e-6, 5.295e-5
0.333, 7.215e-6, 5.440e-5
0.331, 7.212e-6, 5.584e-5
0.329, 7.195e-6, 5.728e-5
0.327, 7.167e-6, 5.871e-5
0.325, 7.163e-6, 6.015e-5
0.323, 7.143e-6, 6.158e-5
0.321, 7.119e-6, 6.300e-5
0.319, 7.114e-6, 6.442e-5
0.317, 7.092e-6, 6.584e-5
0.315, 7.067e-6, 6.726e-5
0.313, 7.066e-6, 6.867e-5
0.311, 7.052e-6, 7.008e-5
0.309, 7.024e-6, 7.149e-5
0.307, 7.017e-6, 7.289e-5
0.305, 7.008e-6, 7.430e-5
0.303, 6.979e-6, 7.569e-5
0.301, 6.969e-6, 7.709e-5
0.299, 6.964e-6, 7.848e-5
0.297, 6.947e-6, 7.987e-5
0.295, 6.925e-6, 8.126e-5
0.293, 6.920e-6, 8.264e-5
0.291, 6.913e-6, 8.402e-5
0.289, 6.895e-6, 8.540e-5
0.287, 6.876e-6, 8.678e-5
0.285, 6.871e-6, 8.815e-5
0.283, 6.869e-6, 8.953e-5
0.281, 6.857e-6, 9.090e-5
0.279, 6.836e-6, 9.227e-5
0.277, 6.824e-6, 9.363e-5
0.275, 6.822e-6, 9.500e-5
0.273, 6.817e-6, 9.636e-5
0.271, 6.800e-6, 9.772e-5
0.269, 6.779e-6, 9.908e-5
0.267, 6.774e-6, 1.004e-4
0.265, 6.773e-6, 1.018e-4
0.263, 6.767e-6, 1.031e-4
0.261, 6.749e-6, 1.045e-4
0.259, 6.729e-6, 1.058e-4
0.257, 6.725e-6, 1.072e-4
0.255, 6.724e-6, 1.085e-4
0.253, 6.718e-6, 1.099e-4
0.251, 6.700e-6, 1.112e-4
0.249, 6.680e-6, 1.126e-4
0.247, 6.677e-6, 1.139e-4
0.245, 6.676e-6, 1.152e-4
0.243, 6.673e-6, 1.166e-4
0.241, 6.653e-6, 1.179e-4
0.239, 6.638e-6, 1.192e-4
0.237, 6.628e-6, 1.205e-4
0.235, 6.627e-6, 1.219e-4
0.233, 6.621e-6, 1.232e-4
0.231, 6.611e-6, 1.245e-4
0.229, 6.589e-6, 1.258e-4
0.227, 6.579e-6, 1.272e-4
0.225, 6.577e-6, 1.285e-4
0.223, 6.572e-6, 1.298e-4
0.221, 6.551e-6, 1.311e-4
0.219, 6.535e-6, 1.324e-4
0.217, 6.530e-6, 1.337e-4
0.215, 6.529e-6, 1.350e-4
0.213, 6.522e-6, 1.363e-4
0.211, 6.498e-6, 1.376e-4
0.209, 6.483e-6, 1.389e-4
0.207, 6.481e-6, 1.402e-4
0.205, 6.480e-6, 1.415e-4
0.203, 6.467e-6, 1.428e-4
0.201, 6.442e-6, 1.441e-4
0.199, 6.433e-6, 1.454e-4
0.197, 6.431e-6, 1.467e-4
0.195, 6.424e-6, 1.479e-4
0.193, 6.395e-6, 1.492e-4
0.191, 6.384e-6, 1.505e-4
0.189, 6.382e-6, 1.518e-4
0.187, 6.373e-6, 1.531e-4
0.185, 6.346e-6, 1.543e-4
0.183, 6.335e-6, 1.556e-4
0.181, 6.333e-6, 1.569e-4
0.179, 6.317e-6, 1.581e-4
0.177, 6.291e-6, 1.594e-4
0.175, 6.285e-6, 1.606e-4
0.173, 6.281e-6, 1.619e-4
0.171, 6.255e-6, 1.632e-4
0.169, 6.237e-6, 1.644e-4
0.167, 6.234e-6, 1.656e-4
0.165, 6.217e-6, 1.669e-4
0.163, 6.191e-6, 1.681e-4
0.161, 6.187e-6, 1.694e-4
0.159, 6.167e-6, 1.706e-4
0.157, 6.146e-6, 1.718e-4
0.155, 6.139e-6, 1.731e-4
0.153, 6.134e-6, 1.743e-4
0.151, 6.097e-6, 1.755e-4
0.149, 6.090e-6, 1.767e-4
0.147, 6.089e-6, 1.779e-4
0.145, 6.064e-6, 1.792e-4
0.143, 6.042e-6, 1.804e-4
0.141, 6.035e-6, 1.816e-4
0.139, 6.002e-6, 1.828e-4
0.137, 5.992e-6, 1.840e-4
0.135, 5.971e-6, 1.852e-4
0.133, 5.945e-6, 1.864e-4
0.131, 5.941e-6, 1.876e-4
0.129, 5.905e-6, 1.887e-4
0.127, 5.894e-6, 1.899e-4
0.125, 5.873e-6, 1.911e-4
0.123, 5.846e-6, 1.923e-4
0.121, 5.840e-6, 1.934e-4
0.119, 5.801e-6, 1.946e-4
0.117, 5.794e-6, 1.958e-4
0.115, 5.758e-6, 1.969e-4
0.113, 5.747e-6, 1.981e-4
0.111, 5.711e-6, 1.992e-4
0.109, 5.698e-6, 2.003e-4
0.107, 5.666e-6, 2.015e-4
0.105, 5.650e-6, 2.026e-4
0.103, 5.615e-6, 2.037e-4
0.101, 5.600e-6, 2.049e-4
0.099, 5.561e-6, 2.060e-4
0.097, 5.550e-6, 2.071e-4
0.095, 5.506e-6, 2.082e-4
0.093, 5.487e-6, 2.093e-4
0.091, 5.456e-6, 2.104e-4
0.089, 5.425e-6, 2.115e-4
0.087, 5.406e-6, 2.125e-4
0.085, 5.362e-6, 2.136e-4
0.083, 5.352e-6, 2.147e-4
0.081, 5.310e-6, 2.157e-4
0.079, 5.281e-6, 2.168e-4
0.077, 5.254e-6, 2.179e-4
0.075, 5.213e-6, 2.189e-4
0.073, 5.188e-6, 2.199e-4
0.071, 5.160e-6, 2.210e-4
0.069, 5.115e-6, 2.220e-4
0.067, 5.096e-6, 2.230e-4
0.065, 5.064e-6, 2.240e-4
0.063, 5.030e-6, 2.250e-4
0.061, 5.013e-6, 2.260e-4
0.059, 4.970e-6, 2.270e-4
0.057, 4.956e-6, 2.280e-4
0.055, 4.919e-6, 2.290e-4
0.053, 4.891e-6, 2.300e-4
0.051, 4.869e-6, 2.310e-4
0.049, 4.839e-6, 2.319e-4
0.047, 4.819e-6, 2.329e-4
0.045, 4.781e-6, 2.339e-4
0.043, 4.768e-6, 2.348e-4
0.041, 4.725e-6, 2.358e-4
0.039, 4.717e-6, 2.367e-4
0.037, 4.678e-6, 2.376e-4
0.035, 4.672e-6, 2.386e-4
0.033, 4.640e-6, 2.395e-4
0.031, 4.625e-6, 2.404e-4
0.029, 4.614e-6, 2.414e-4
0.027, 4.581e-6, 2.423e-4
0.025, 4.576e-6, 2.432e-4
0.023, 4.564e-6, 2.441e-4
0.021, 4.535e-6, 2.450e-4
0.019, 4.527e-6, 2.459e-4
0.017, 4.527e-6, 2.468e-4
0.015, 4.520e-6, 2.477e-4
0.013, 4.503e-6, 2.486e-4
0.011, 4.483e-6, 2.495e-4
0.009, 4.481e-6, 2.504e-4
0.007, 4.479e-6, 2.513e-4
0.005, 4.478e-6, 2.522e-4
0.003, 4.476e-6, 2.531e-4
0.001, 4.476e-6, 2.540e-4
-0.001, 4.474e-6, 2.549e-4
-0.003, 4.468e-6, 2.558e-4
-0.005, 4.453e-6, 2.567e-4
-0.007, 4.459e-6, 2.576e-4
-0.009, 4.453e-6, 2.585e-4
-0.011, 4.448e-6, 2.594e-4
-0.013, 4.438e-6, 2.603e-4
-0.015, 4.441e-6, 2.611e-4
-0.017, 4.443e-6, 2.620e-4
-0.019, 4.438e-6, 2.629e-4
-0.021, 4.434e-6, 2.638e-4
-0.023, 4.436e-6, 2.647e-4
-0.025, 4.437e-6, 2.656e-4
-0.027, 4.436e-6, 2.665e-4
-0.029, 4.436e-6, 2.674e-4
-0.031, 4.440e-6, 2.682e-4
-0.033, 4.443e-6, 2.691e-4
-0.035, 4.446e-6, 2.700e-4
-0.037, 4.443e-6, 2.709e-4
-0.039, 4.450e-6, 2.718e-4
-0.041, 4.456e-6, 2.727e-4
-0.043, 4.459e-6, 2.736e-4
-0.045, 4.460e-6, 2.745e-4
-0.047, 4.463e-6, 2.754e-4
-0.049, 4.473e-6, 2.763e-4
-0.051, 4.474e-6, 2.772e-4
-0.053, 4.476e-6, 2.780e-4
-0.055, 4.475e-6, 2.789e-4
-0.057, 4.478e-6, 2.798e-4
-0.059, 4.478e-6, 2.807e-4
-0.061, 4.478e-6, 2.816e-4
-0.063, 4.478e-6, 2.825e-4
-0.065, 4.479e-6, 2.834e-4
-0.067, 4.479e-6, 2.843e-4
-0.069, 4.479e-6, 2.852e-4
-0.071, 4.479e-6, 2.861e-4
-0.073, 4.483e-6, 2.870e-4
-0.075, 4.485e-6, 2.879e-4
-0.077, 4.487e-6, 2.888e-4
-0.079, 4.487e-6, 2.897e-4
-0.081, 4.507e-6, 2.906e-4
-0.083, 4.512e-6, 2.915e-4
-0.085, 4.517e-6, 2.924e-4
-0.087, 4.517e-6, 2.933e-4
-0.089, 4.525e-6, 2.942e-4
-0.091, 4.526e-6, 2.951e-4
-0.093, 4.526e-6, 2.960e-4
-0.095, 4.527e-6, 2.969e-4
-0.097, 4.527e-6, 2.978e-4
-0.099, 4.527e-6, 2.987e-4
-0.101, 4.528e-6, 2.996e-4
-0.103, 4.527e-6, 3.005e-4
-0.105, 4.528e-6, 3.015e-4
-0.107, 4.528e-6, 3.024e-4
-0.109, 4.529e-6, 3.033e-4
-0.111, 4.528e-6, 3.042e-4
-0.113, 4.530e-6, 3.051e-4
-0.115, 4.532e-6, 3.060e-4
-0.117, 4.530e-6, 3.069e-4
-0.119, 4.531e-6, 3.078e-4
-0.121, 4.529e-6, 3.087e-4
-0.123, 4.531e-6, 3.096e-4
-0.125, 4.531e-6, 3.105e-4
-0.127, 4.532e-6, 3.114e-4
-0.129, 4.531e-6, 3.123e-4
-0.131, 4.533e-6, 3.132e-4
-0.133, 4.537e-6, 3.141e-4
-0.135, 4.536e-6, 3.150e-4
-0.137, 4.537e-6, 3.160e-4
-0.139, 4.548e-6, 3.169e-4
-0.141, 4.554e-6, 3.178e-4
-0.143, 4.555e-6, 3.187e-4
-0.145, 4.550e-6, 3.196e-4
-0.147, 4.565e-6, 3.205e-4
-0.149, 4.565e-6, 3.214e-4
-0.151, 4.570e-6, 3.223e-4
-0.153, 4.569e-6, 3.232e-4
-0.155, 4.574e-6, 3.242e-4
-0.157, 4.576e-6, 3.251e-4
-0.159, 4.576e-6, 3.260e-4
-0.161, 4.576e-6, 3.269e-4
-0.163, 4.576e-6, 3.278e-4
-0.165, 4.577e-6, 3.287e-4
-0.167, 4.582e-6, 3.297e-4
-0.169, 4.582e-6, 3.306e-4
-0.171, 4.595e-6, 3.315e-4
-0.173, 4.606e-6, 3.324e-4
-0.175, 4.612e-6, 3.333e-4
-0.177, 4.614e-6, 3.343e-4
-0.179, 4.619e-6, 3.352e-4
-0.181, 4.624e-6, 3.361e-4
-0.183, 4.625e-6, 3.370e-4
-0.185, 4.625e-6, 3.380e-4
-0.187, 4.626e-6, 3.389e-4
-0.189, 4.627e-6, 3.398e-4
-0.191, 4.631e-6, 3.407e-4
-0.193, 4.637e-6, 3.417e-4
-0.195, 4.646e-6, 3.426e-4
-0.197, 4.653e-6, 3.435e-4
-0.199, 4.669e-6, 3.444e-4
-0.201, 4.670e-6, 3.454e-4
-0.203, 4.673e-6, 3.463e-4
-0.205, 4.676e-6, 3.473e-4
-0.207, 4.676e-6, 3.482e-4
-0.209, 4.680e-6, 3.491e-4
-0.211, 4.681e-6, 3.501e-4
-0.213, 4.694e-6, 3.510e-4
-0.215, 4.704e-6, 3.519e-4
-0.217, 4.713e-6, 3.529e-4
-0.219, 4.717e-6, 3.538e-4
-0.221, 4.722e-6, 3.548e-4
-0.223, 4.722e-6, 3.557e-4
-0.225, 4.722e-6, 3.567e-4
-0.227, 4.723e-6, 3.576e-4
-0.229, 4.723e-6, 3.585e-4
-0.231, 4.723e-6, 3.595e-4
-0.233, 4.724e-6, 3.604e-4
-0.235, 4.724e-6, 3.614e-4
-0.237, 4.726e-6, 3.623e-4
-0.239, 4.729e-6, 3.633e-4
-0.241, 4.731e-6, 3.642e-4
-0.243, 4.731e-6, 3.652e-4
-0.245, 4.737e-6, 3.661e-4
-0.247, 4.748e-6, 3.671e-4
-0.249, 4.750e-6, 3.680e-4
-0.251, 4.747e-6, 3.690e-4
-0.253, 4.760e-6, 3.699e-4
-0.255, 4.761e-6, 3.709e-4
-0.257, 4.762e-6, 3.718e-4
-0.259, 4.756e-6, 3.728e-4
-0.261, 4.761e-6, 3.737e-4
-0.263, 4.761e-6, 3.747e-4
-0.265, 4.760e-6, 3.756e-4
-0.267, 4.751e-6, 3.766e-4
-0.269, 4.758e-6, 3.775e-4
-0.271, 4.757e-6, 3.785e-4
-0.273, 4.749e-6, 3.794e-4
-0.275, 4.738e-6, 3.804e-4
-0.277, 4.732e-6, 3.813e-4
-0.279, 4.737e-6, 3.823e-4
-0.281, 4.729e-6, 3.832e-4
-0.283, 4.727e-6, 3.842e-4
-0.285, 4.727e-6, 3.851e-4
-0.287, 4.733e-6, 3.860e-4
-0.289, 4.731e-6, 3.870e-4
-0.291, 4.736e-6, 3.879e-4
-0.293, 4.742e-6, 3.889e-4
-0.295, 4.767e-6, 3.898e-4
-0.297, 4.771e-6, 3.908e-4
-0.299, 4.773e-6, 3.917e-4