File: 循环伏安/analysis/114514/oxideLSV_air.txt
Nov. 2, 2023   13:15:40
Linear Sweep Voltammetry
File: c:\users\dell\desktop\电化学数据\114514\oxidelsv_air.txt
Data Source:  Experiment
Instrument Model:  CHI600B
Header:
Note:

Init E (V) = 1.25
Final E (V) = -0.3
Scan Rate (V/s) = 0.01
Sample Interval (V) = 0.001
Quiet Time (sec) = 2
Sensitivity (A/V) = 1e-5

Potential/V, Current/A, Charge/C

Segment 1:
1.249, -4.965e-6, -4.965e-7
1.247, -2.784e-6, -1.122e-6
1.245, -2.103e-6, -1.570e-6
1.243, -1.729e-6, -1.932e-6
1.241, -1.497e-6, -2.242e-6
1.239, -1.331e-6, -2.515e-6
1.237, -1.202e-6, -2.762e-6
1.235, -1.099e-6, -2.987e-6
1.233, -1.020e-6, -3.194e-6
1.231, -9.482e-7, -3.388e-6
1.229, -8.921e-7, -3.569e-6
1.227, -8.423e-7, -3.740e-6
1.225, -7.948e-7, -3.900e-6
1.223, -7.490e-7, -4.053e-6
1.221, -7.151e-7, -4.199e-6
1.219, -6.929e-7, -4.338e-6
1.217, -6.509e-7, -4.470e-6
1.215, -6.357e-7, -4.598e-6
1.213, -6.004e-7, -4.720e-6
1.211, -5.941e-7, -4.839e-6
1.209, -5.596e-7, -4.953e-6
1.207, -5.500e-7, -5.063e-6
1.205, -5.275e-7, -5.170e-6
1.203, -5.039e-7, -5.272e-6
1.201, -5.003e-7, -5.372e-6
1.199, -4.839e-7, -5.470e-6
1.197, -4.599e-7, -5.563e-6
1.195, -4.533e-7, -5.653e-6
1.193, -4.500e-7, -5.744e-6
1.191, -4.353e-7, -5.832e-6
1.189, -4.130e-7, -5.915e-6
1.187, -4.052e-7, -5.997e-6
1.185, -4.042e-7, -6.078e-6
1.183, -4.028e-7, -6.158e-6
1.181, -3.969e-7, -6.238e-6
1.179, -3.825e-7, -6.316e-6
1.177, -3.664e-7, -6.390e-6
1.175, -3.580e-7, -6.462e-6
1.173, -3.556e-7, -6.533e-6
1.171, -3.546e-7, -6.604e-6
1.169, -3.503e-7, -6.674e-6
1.167, -3.361e-7, -6.742e-6
1.165, -3.104e-7, -6.806e-6
1.163, -2.734e-7, -6.863e-6
1.161, -2.403e-7, -6.913e-6
1.159, -2.207e-7, -6.958e-6
1.157, -2.125e-7, -7.001e-6
1.155, -2.094e-7, -7.043e-6
1.153, -2.082e-7, -7.085e-6
1.151, -2.067e-7, -7.126e-6
1.149, -2.046e-7, -7.168e-6
1.147, -2.013e-7, -7.208e-6
1.145, -1.972e-7, -7.248e-6
1.143, -1.919e-7, -7.286e-6
1.141, -1.860e-7, -7.324e-6
1.139, -1.787e-7, -7.360e-6
1.137, -1.722e-7, -7.395e-6
1.135, -1.668e-7, -7.429e-6
1.133, -1.633e-7, -7.462e-6
1.131, -1.615e-7, -7.494e-6
1.129, -1.607e-7, -7.526e-6
1.127, -1.602e-7, -7.558e-6
1.125, -1.601e-7, -7.590e-6
1.123, -1.599e-7, -7.622e-6
1.121, -1.596e-7, -7.654e-6
1.119, -1.590e-7, -7.686e-6
1.117, -1.579e-7, -7.718e-6
1.115, -1.560e-7, -7.749e-6
1.113, -1.531e-7, -7.780e-6
1.111, -1.502e-7, -7.810e-6
1.109, -1.480e-7, -7.839e-6
1.107, -1.439e-7, -7.868e-6
1.105, -1.392e-7, -7.897e-6
1.103, -1.349e-7, -7.924e-6
1.101, -1.290e-7, -7.950e-6
1.099, -1.247e-7, -7.975e-6
1.097, -1.204e-7, -7.999e-6
1.095, -1.176e-7, -8.023e-6
1.093, -1.153e-7, -8.046e-6
1.091, -1.140e-7, -8.069e-6
1.089, -1.130e-7, -8.092e-6
1.087, -1.122e-7, -8.114e-6
1.085, -1.118e-7, -8.137e-6
1.083, -1.116e-7, -8.159e-6
1.081, -1.113e-7, -8.181e-6
1.079, -1.112e-7, -8.203e-6
1.077, -1.111e-7, -8.226e-6
1.075, -1.109e-7, -8.248e-6
1.073, -1.105e-7, -8.270e-6
1.071, -1.102e-7, -8.292e-6
1.069, -1.096e-7, -8.314e-6
1.067, -1.089e-7, -8.336e-6
1.065, -1.079e-7, -8.357e-6
1.063, -1.067e-7, -8.379e-6
1.061, -1.054e-7, -8.400e-6
1.059, -1.039e-7, -8.421e-6
1.057, -1.021e-7, -8.441e-6
1.055, -1.003e-7, -8.461e-6
1.053, -9.887e-8, -8.481e-6
1.051, -9.642e-8, -8.500e-6
1.049, -9.419e-8, -8.519e-6
1.047, -9.151e-8, -8.537e-6
1.045, -8.914e-8, -8.555e-6
1.043, -8.716e-8, -8.572e-6
1.041, -8.595e-8, -8.589e-6
1.039, -8.254e-8, -8.605e-6
1.037, -7.915e-8, -8.621e-6
1.035, -7.637e-8, -8.636e-6
1.033, -7.382e-8, -8.651e-6
1.031, -7.238e-8, -8.665e-6
1.029, -7.040e-8, -8.679e-6
1.027, -6.890e-8, -8.693e-6
1.025, -6.747e-8, -8.706e-6
1.023, -6.632e-8, -8.720e-6
1.021, -6.564e-8, -8.733e-6
1.019, -6.548e-8, -8.746e-6
1.017, -6.484e-8, -8.759e-6
1.015, -6.440e-8, -8.772e-6
1.013, -6.389e-8, -8.784e-6
1.011, -6.346e-8, -8.797e-6
1.009, -6.327e-8, -8.810e-6
1.007, -6.297e-8, -8.822e-6
1.005, -6.278e-8, -8.835e-6
1.003, -6.268e-8, -8.847e-6
1.001, -6.257e-8, -8.860e-6
0.999, -6.245e-8, -8.872e-6
0.997, -6.239e-8, -8.885e-6
0.995, -6.224e-8, -8.897e-6
0.993, -6.219e-8, -8.910e-6
0.991, -6.202e-8, -8.922e-6
0.989, -6.186e-8, -8.935e-6
0.987, -6.169e-8, -8.947e-6
0.985, -6.129e-8, -8.959e-6
0.983, -6.087e-8, -8.971e-6
0.981, -6.048e-8, -8.984e-6
0.979, -5.990e-8, -8.996e-6
0.977, -5.914e-8, -9.007e-6
0.975, -5.813e-8, -9.019e-6
0.973, -5.704e-8, -9.031e-6
0.971, -5.595e-8, -9.042e-6
0.969, -5.520e-8, -9.053e-6
0.967, -5.368e-8, -9.064e-6
0.965, -5.294e-8, -9.074e-6
0.963, -5.163e-8, -9.085e-6
0.961, -5.019e-8, -9.095e-6
0.959, -4.810e-8, -9.105e-6
0.957, -4.650e-8, -9.114e-6
0.955, -4.446e-8, -9.123e-6
0.953, -4.279e-8, -9.132e-6
0.951, -4.012e-8, -9.140e-6
0.949, -3.785e-8, -9.148e-6
0.947, -3.712e-8, -9.155e-6
0.945, -3.413e-8, -9.162e-6
0.943, -3.155e-8, -9.169e-6
0.941, -2.929e-8, -9.175e-6
0.939, -2.615e-8, -9.180e-6
0.937, -2.457e-8, -9.185e-6
0.935, -2.290e-8, -9.190e-6
0.933, -2.233e-8, -9.194e-6
0.931, -2.111e-8, -9.199e-6
0.929, -1.968e-8, -9.203e-6
0.927, -1.850e-8, -9.207e-6
0.925, -1.796e-8, -9.210e-6
0.923, -1.731e-8, -9.214e-6
0.921, -1.658e-8, -9.217e-6
0.919, -1.609e-8, -9.220e-6
0.917, -1.573e-8, -9.224e-6
0.915, -1.531e-8, -9.227e-6
0.913, -1.477e-8, -9.230e-6
0.911, -1.449e-8, -9.233e-6
0.909, -1.434e-8, -9.235e-6
0.907, -1.410e-8, -9.238e-6
0.905, -1.395e-8, -9.241e-6
0.903, -1.388e-8, -9.244e-6
0.901, -1.379e-8, -9.247e-6
0.899, -1.361e-8, -9.249e-6
0.897, -1.348e-8, -9.252e-6
0.895, -1.333e-8, -9.255e-6
0.893, -1.326e-8, -9.257e-6
0.891, -1.315e-8, -9.260e-6
0.889, -1.292e-8, -9.263e-6
0.887, -1.268e-8, -9.265e-6
0.885, -1.253e-8, -9.268e-6
0.883, -1.210e-8, -9.270e-6
0.881, -1.182e-8, -9.273e-6
0.879, -1.143e-8, -9.275e-6
0.877, -1.093e-8, -9.277e-6
0.875, -1.050e-8, -9.279e-6
0.873, -9.958e-9, -9.281e-6
0.871, -9.258e-9, -9.283e-6
0.869, -8.413e-9, -9.285e-6
0.867, -7.316e-9, -9.287e-6
0.865, -6.227e-9, -9.288e-6
0.863, -5.500e-9, -9.289e-6
0.861, -4.833e-9, -9.290e-6
0.859, -3.394e-9, -9.291e-6
0.857, -1.848e-9, -9.292e-6
0.855, -3.428e-10, -9.292e-6
0.853, 1.189e-9, -9.292e-6
0.851, 2.431e-9, -9.292e-6
0.849, 3.844e-9, -9.291e-6
0.847, 5.997e-9, -9.290e-6
0.845, 6.737e-9, -9.289e-6
0.843, 9.253e-9, -9.287e-6
0.841, 1.145e-8, -9.285e-6
0.839, 1.275e-8, -9.283e-6
0.837, 1.502e-8, -9.280e-6
0.835, 1.698e-8, -9.277e-6
0.833, 1.852e-8, -9.273e-6
0.831, 2.057e-8, -9.269e-6
0.829, 2.214e-8, -9.265e-6
0.827, 2.386e-8, -9.260e-6
0.825, 2.472e-8, -9.256e-6
0.823, 2.624e-8, -9.251e-6
0.821, 2.721e-8, -9.245e-6
0.819, 2.719e-8, -9.240e-6
0.817, 2.916e-8, -9.234e-6
0.815, 3.025e-8, -9.228e-6
0.813, 3.123e-8, -9.222e-6
0.811, 3.184e-8, -9.216e-6
0.809, 3.260e-8, -9.209e-6
0.807, 3.308e-8, -9.203e-6
0.805, 3.336e-8, -9.196e-6
0.803, 3.373e-8, -9.189e-6
0.801, 3.414e-8, -9.183e-6
0.799, 3.425e-8, -9.176e-6
0.797, 3.437e-8, -9.169e-6
0.795, 3.464e-8, -9.162e-6
0.793, 3.466e-8, -9.155e-6
0.791, 3.484e-8, -9.148e-6
0.789, 3.490e-8, -9.141e-6
0.787, 3.501e-8, -9.134e-6
0.785, 3.508e-8, -9.127e-6
0.783, 3.511e-8, -9.120e-6
0.781, 3.514e-8, -9.113e-6
0.779, 3.518e-8, -9.106e-6
0.777, 3.523e-8, -9.099e-6
0.775, 3.527e-8, -9.092e-6
0.773, 3.529e-8, -9.085e-6
0.771, 3.534e-8, -9.078e-6
0.769, 3.539e-8, -9.071e-6
0.767, 3.546e-8, -9.064e-6
0.765, 3.556e-8, -9.057e-6
0.763, 3.565e-8, -9.049e-6
0.761, 3.578e-8, -9.042e-6
0.759, 3.602e-8, -9.035e-6
0.757, 3.620e-8, -9.028e-6
0.755, 3.661e-8, -9.021e-6
0.753, 3.684e-8, -9.013e-6
0.751, 3.752e-8, -9.006e-6
0.749, 3.819e-8, -8.998e-6
0.747, 3.867e-8, -8.990e-6
0.745, 3.982e-8, -8.983e-6
0.743, 4.089e-8, -8.974e-6
0.741, 4.170e-8, -8.966e-6
0.739, 4.346e-8, -8.958e-6
0.737, 4.512e-8, -8.949e-6
0.735, 4.652e-8, -8.940e-6
0.733, 4.880e-8, -8.930e-6
0.731, 5.121e-8, -8.920e-6
0.729, 5.421e-8, -8.909e-6
0.727, 5.588e-8, -8.898e-6
0.725, 5.893e-8, -8.886e-6
0.723, 6.198e-8, -8.874e-6
0.721, 6.497e-8, -8.861e-6
0.719, 6.737e-8, -8.848e-6
0.717, 6.982e-8, -8.834e-6
0.715, 7.188e-8, -8.820e-6
0.713, 7.405e-8, -8.806e-6
0.711, 7.568e-8, -8.791e-6
0.709, 7.742e-8, -8.775e-6
0.707, 7.894e-8, -8.759e-6
0.705, 7.985e-8, -8.744e-6
0.703, 8.098e-8, -8.727e-6
0.701, 8.169e-8, -8.711e-6
0.699, 8.233e-8, -8.695e-6
0.697, 8.281e-8, -8.678e-6
0.695, 8.316e-8, -8.662e-6
0.693, 8.342e-8, -8.645e-6
0.691, 8.359e-8, -8.628e-6
0.689, 8.380e-8, -8.611e-6
0.687, 8.398e-8, -8.595e-6
0.685, 8.409e-8, -8.578e-6
0.683, 8.425e-8, -8.561e-6
0.681, 8.440e-8, -8.544e-6
0.679, 8.462e-8, -8.527e-6
0.677, 8.495e-8, -8.510e-6
0.675, 8.536e-8, -8.493e-6
0.673, 8.579e-8, -8.476e-6
0.671, 8.638e-8, -8.459e-6
0.669, 8.719e-8, -8.441e-6
0.667, 8.806e-8, -8.424e-6
0.665, 8.952e-8, -8.406e-6
0.663, 9.085e-8, -8.387e-6
0.661, 9.280e-8, -8.369e-6
0.659, 9.426e-8, -8.350e-6
0.657, 9.676e-8, -8.330e-6
0.655, 9.937e-8, -8.310e-6
0.653, 1.018e-7, -8.290e-6
0.651, 1.047e-7, -8.269e-6
0.649, 1.085e-7, -8.247e-6
0.647, 1.113e-7, -8.225e-6
0.645, 1.143e-7, -8.202e-6
0.643, 1.174e-7, -8.178e-6
0.641, 1.205e-7, -8.154e-6
0.639, 1.224e-7, -8.130e-6
0.637, 1.249e-7, -8.105e-6
0.635, 1.267e-7, -8.079e-6
0.633, 1.287e-7, -8.054e-6
0.631, 1.300e-7, -8.028e-6
0.629, 1.310e-7, -8.002e-6
0.627, 1.317e-7, -7.975e-6
0.625, 1.322e-7, -7.949e-6
0.623, 1.325e-7, -7.922e-6
0.621, 1.327e-7, -7.896e-6
0.619, 1.329e-7, -7.869e-6
0.617, 1.331e-7, -7.843e-6
0.615, 1.334e-7, -7.816e-6
0.613, 1.338e-7, -7.789e-6
0.611, 1.345e-7, -7.762e-6
0.609, 1.356e-7, -7.735e-6
0.607, 1.374e-7, -7.708e-6
0.605, 1.397e-7, -7.680e-6
0.603, 1.427e-7, -7.652e-6
0.601, 1.474e-7, -7.623e-6
0.599, 1.525e-7, -7.592e-6
0.597, 1.575e-7, -7.561e-6
0.595, 1.632e-7, -7.529e-6
0.593, 1.680e-7, -7.496e-6
0.591, 1.729e-7, -7.461e-6
0.589, 1.758e-7, -7.426e-6
0.587, 1.785e-7, -7.391e-6
0.585, 1.800e-7, -7.355e-6
0.583, 1.809e-7, -7.319e-6
0.581, 1.814e-7, -7.282e-6
0.579, 1.817e-7, -7.246e-6
0.577, 1.819e-7, -7.210e-6
0.575, 1.824e-7, -7.173e-6
0.573, 1.832e-7, -7.137e-6
0.571, 1.847e-7, -7.100e-6
0.569, 1.877e-7, -7.063e-6
0.567, 1.926e-7, -7.024e-6
0.565, 1.982e-7, -6.985e-6
0.563, 2.066e-7, -6.944e-6
0.561, 2.140e-7, -6.902e-6
0.559, 2.207e-7, -6.858e-6
0.557, 2.253e-7, -6.813e-6
0.555, 2.284e-7, -6.767e-6
0.553, 2.298e-7, -6.721e-6
0.551, 2.304e-7, -6.675e-6
0.549, 2.306e-7, -6.629e-6
0.547, 2.309e-7, -6.583e-6
0.545, 2.318e-7, -6.537e-6
0.543, 2.342e-7, -6.490e-6
0.541, 2.400e-7, -6.443e-6
0.539, 2.495e-7, -6.393e-6
0.537, 2.599e-7, -6.342e-6
0.535, 2.705e-7, -6.288e-6
0.533, 2.764e-7, -6.233e-6
0.531, 2.787e-7, -6.178e-6
0.529, 2.795e-7, -6.122e-6
0.527, 2.806e-7, -6.066e-6
0.525, 2.840e-7, -6.009e-6
0.523, 2.916e-7, -5.951e-6
0.521, 3.037e-7, -5.891e-6
0.519, 3.161e-7, -5.828e-6
0.517, 3.246e-7, -5.763e-6
0.515, 3.276e-7, -5.698e-6
0.513, 3.287e-7, -5.632e-6
0.511, 3.329e-7, -5.566e-6
0.509, 3.478e-7, -5.497e-6
0.507, 3.672e-7, -5.425e-6
0.505, 3.760e-7, -5.350e-6
0.503, 3.773e-7, -5.274e-6
0.501, 3.825e-7, -5.198e-6
0.499, 4.035e-7, -5.119e-6
0.497, 4.228e-7, -5.035e-6
0.495, 4.259e-7, -4.950e-6
0.493, 4.294e-7, -4.864e-6
0.491, 4.557e-7, -4.775e-6
0.489, 4.738e-7, -4.680e-6
0.487, 4.785e-7, -4.585e-6
0.485, 5.022e-7, -4.486e-6
0.483, 5.225e-7, -4.382e-6
0.481, 5.300e-7, -4.277e-6
0.479, 5.674e-7, -4.165e-6
0.477, 5.756e-7, -4.050e-6
0.475, 6.140e-7, -3.930e-6
0.473, 6.224e-7, -3.805e-6
0.471, 6.640e-7, -3.675e-6
0.469, 6.812e-7, -3.540e-6
0.467, 7.182e-7, -3.397e-6
0.465, 7.593e-7, -3.249e-6
0.463, 7.886e-7, -3.093e-6
0.461, 8.194e-7, -2.930e-6
0.459, 8.673e-7, -2.758e-6
0.457, 9.140e-7, -2.577e-6
0.455, 9.635e-7, -2.386e-6
0.453, 1.013e-6, -2.186e-6
0.451, 1.070e-6, -1.974e-6
0.449, 1.135e-6, -1.750e-6
0.447, 1.214e-6, -1.512e-6
0.445, 1.294e-6, -1.257e-6
0.443, 1.365e-6, -9.875e-7
0.441, 1.450e-6, -7.020e-7
0.439, 1.538e-6, -3.987e-7
0.437, 1.627e-6, -7.761e-8
0.435, 1.722e-6, 2.620e-7
0.433, 1.829e-6, 6.225e-7
0.431, 1.944e-6, 1.005e-6
0.429, 2.067e-6, 1.412e-6
0.427, 2.197e-6, 1.845e-6
0.425, 2.340e-6, 2.306e-6
0.423, 2.490e-6, 2.795e-6
0.421, 2.649e-6, 3.317e-6
0.419, 2.824e-6, 3.873e-6
0.417, 3.000e-6, 4.464e-6
0.415, 3.193e-6, 5.093e-6
0.413, 3.391e-6, 5.761e-6
0.411, 3.599e-6, 6.470e-6
0.409, 3.813e-6, 7.222e-6
0.407, 4.043e-6, 8.019e-6
0.405, 4.281e-6, 8.863e-6
0.403, 4.557e-6, 9.761e-6
0.401, 4.810e-6, 1.071e-5
0.399, 5.064e-6, 1.171e-5
0.397, 5.312e-6, 1.276e-5
0.395, 5.619e-6, 1.387e-5
0.393, 5.993e-6, 1.505e-5
0.391, 6.356e-6, 1.630e-5
0.389, 6.654e-6, 1.762e-5
0.387, 7.008e-6, 1.900e-5
0.385, 7.326e-6, 2.045e-5
0.383, 7.714e-6, 2.198e-5
0.381, 7.935e-6, 2.356e-5
0.379, 8.206e-6, 2.518e-5
0.377, 8.290e-6, 2.684e-5
0.375, 8.379e-6, 2.851e-5
0.373, 8.758e-6, 3.024e-5
0.371, 9.305e-6, 3.207e-5
0.369, 9.522e-6, 3.396e-5
0.367, 1.019e-5, 3.597e-5
0.365, 1.053e-5, 3.806e-5
0.363, 1.066e-5, 4.018e-5
0.361, 1.060e-5, 4.231e-5
0.359, 1.038e-5, 4.440e-5
0.357, 1.065e-5, 4.650e-5
0.355, 1.108e-5, 4.870e-5
0.353, 1.179e-5, 5.102e-5
0.351, 1.229e-5, 5.346e-5
0.349, 1.258e-5, 5.595e-5
0.347, 1.270e-5, 5.849e-5
0.345, 1.255e-5, 6.101e-5
0.343, 1.240e-5, 6.350e-5
0.341, 1.256e-5, 6.600e-5
0.339, 1.320e-5, 6.859e-5
0.337, 1.402e-5, 7.135e-5
0.335, 1.527e-5, 7.436e-5
0.333, 1.455e-5, 7.731e-5
0.331, 1.497e-5, 8.027e-5
0.329, 1.428e-5, 8.318e-5
0.327, 1.380e-5, 8.595e-5
0.325, 1.483e-5, 8.885e-5
0.323, 1.600e-5, 9.199e-5
0.321, 1.526e-5, 9.510e-5
0.319, 1.422e-5, 9.799e-5
0.317, 1.401e-5, 1.008e-4
0.315, 1.528e-5, 1.038e-4
0.313, 1.530e-5, 1.069e-4
0.311, 1.580e-5, 1.100e-4
0.309, 1.587e-5, 1.132e-4
0.307, 1.451e-5, 1.161e-4
0.305, 1.444e-5, 1.190e-4
0.303, 1.572e-5, 1.221e-4
0.301, 1.596e-5, 1.253e-4
0.299, 1.472e-5, 1.283e-4
0.297, 1.425e-5, 1.312e-4
0.295, 1.580e-5, 1.342e-4
0.293, 1.795e-5, 1.377e-4
0.291, 1.658e-5, 1.411e-4
0.289, 1.527e-5, 1.443e-4
0.287, 1.651e-5, 1.475e-4
0.285, 1.721e-5, 1.509e-4
0.283, 1.653e-5, 1.542e-4
0.281, 1.567e-5, 1.574e-4
0.279, 1.662e-5, 1.607e-4
0.277, 1.697e-5, 1.641e-4
0.275, 1.615e-5, 1.673e-4
0.273, 1.740e-5, 1.707e-4
0.271, 1.798e-5, 1.743e-4
0.269, 1.752e-5, 1.778e-4
0.267, 1.777e-5, 1.813e-4
0.265, 1.836e-5, 1.850e-4
0.263, 1.722e-5, 1.885e-4
0.261, 1.583e-5, 1.917e-4
0.259, 1.551e-5, 1.948e-4
0.257, 1.454e-5, 1.978e-4
0.255, 1.364e-5, 2.006e-4
0.253, 1.417e-5, 2.034e-4
0.251, 1.588e-5, 2.064e-4
0.249, 1.712e-5, 2.098e-4
0.247, 1.946e-5, 2.135e-4
0.245, 2.094e-5, 2.177e-4
0.243, 2.195e-5, 2.221e-4
0.241, 2.037e-5, 2.263e-4
0.239, 1.872e-5, 2.301e-4
0.237, 1.674e-5, 2.335e-4
0.235, 1.846e-5, 2.371e-4
0.233, 1.764e-5, 2.407e-4
0.231, 1.806e-5, 2.443e-4
0.229, 1.696e-5, 2.478e-4
0.227, 1.742e-5, 2.512e-4
0.225, 1.709e-5, 2.547e-4
0.223, 1.687e-5, 2.580e-4
0.221, 1.806e-5, 2.615e-4
0.219, 1.826e-5, 2.652e-4
0.217, 1.827e-5, 2.688e-4
0.215, 1.788e-5, 2.724e-4
0.213, 1.807e-5, 2.761e-4
0.211, 1.889e-5, 2.798e-4
0.209, 1.723e-5, 2.833e-4
0.207, 1.760e-5, 2.868e-4
0.205, 1.647e-5, 2.902e-4
0.203, 1.628e-5, 2.934e-4
0.201, 1.669e-5, 2.967e-4
0.199, 1.754e-5, 3.001e-4
0.197, 2.178e-5, 3.043e-4
0.195, 2.133e-5, 3.087e-4
0.193, 2.012e-5, 3.128e-4
0.191, 1.850e-5, 3.166e-4
0.189, 1.688e-5, 3.200e-4
0.187, 1.872e-5, 3.236e-4
0.185, 2.019e-5, 3.277e-4
0.183, 1.965e-5, 3.316e-4
0.181, 1.877e-5, 3.354e-4
0.179, 1.787e-5, 3.390e-4
0.177, 2.223e-5, 3.433e-4
0.175, 2.027e-5, 3.474e-4
0.173, 2.025e-5, 3.515e-4
0.171, 1.840e-5, 3.553e-4
0.169, 1.596e-5, 3.586e-4
0.167, 1.510e-5, 3.616e-4
0.165, 1.828e-5, 3.650e-4
0.163, 1.986e-5, 3.690e-4
0.161, 1.900e-5, 3.728e-4
0.159, 2.048e-5, 3.769e-4
0.157, 2.150e-5, 3.812e-4
0.155, 2.104e-5, 3.854e-4
0.153, 2.105e-5, 3.896e-4
0.151, 1.891e-5, 3.935e-4
0.149, 1.767e-5, 3.970e-4
0.147, 1.982e-5, 4.010e-4
0.145, 1.900e-5, 4.048e-4
0.143, 1.694e-5, 4.083e-4
0.141, 1.513e-5, 4.114e-4
0.139, 1.635e-5, 4.146e-4
0.137, 1.744e-5, 4.180e-4
0.135, 2.047e-5, 4.220e-4
0.133, 1.962e-5, 4.259e-4
0.131, 1.858e-5, 4.296e-4
0.129, 1.782e-5, 4.333e-4
0.127, 1.526e-5, 4.365e-4
0.125, 1.533e-5, 4.395e-4
0.123, 1.959e-5, 4.433e-4
0.121, 1.886e-5, 4.471e-4
0.119, 1.664e-5, 4.506e-4
0.117, 1.590e-5, 4.538e-4
0.115, 1.562e-5, 4.569e-4
0.113, 1.606e-5, 4.601e-4
0.111, 1.755e-5, 4.635e-4
0.109, 1.814e-5, 4.672e-4
0.107, 1.783e-5, 4.707e-4
0.105, 1.789e-5, 4.743e-4
0.103, 1.888e-5, 4.781e-4
0.101, 1.999e-5, 4.820e-4
0.099, 2.083e-5, 4.862e-4
0.097, 1.826e-5, 4.900e-4
0.095, 1.929e-5, 4.938e-4
0.093, 1.694e-5, 4.974e-4
0.091, 1.674e-5, 5.006e-4
0.089, 1.919e-5, 5.044e-4
0.087, 2.029e-5, 5.084e-4
0.085, 2.230e-5, 5.129e-4
0.083, 1.879e-5, 5.167e-4
0.081, 1.615e-5, 5.201e-4
0.079, 1.928e-5, 5.238e-4
0.077, 1.877e-5, 5.277e-4
0.075, 1.971e-5, 5.316e-4
0.073, 1.972e-5, 5.355e-4
0.071, 1.871e-5, 5.393e-4
0.069, 1.654e-5, 5.427e-4
0.067, 1.573e-5, 5.459e-4
0.065, 1.982e-5, 5.496e-4
0.063, 2.116e-5, 5.539e-4
0.061, 1.730e-5, 5.576e-4
0.059, 1.590e-5, 5.608e-4
0.057, 1.508e-5, 5.638e-4
0.055, 1.427e-5, 5.667e-4
0.053, 1.555e-5, 5.698e-4
0.051, 1.562e-5, 5.730e-4
0.049, 1.531e-5, 5.761e-4
0.047, 1.612e-5, 5.791e-4
0.045, 2.009e-5, 5.830e-4
0.043, 2.064e-5, 5.872e-4
0.041, 1.946e-5, 5.911e-4
0.039, 1.925e-5, 5.949e-4
0.037, 1.923e-5, 5.987e-4
0.035, 2.055e-5, 6.029e-4
0.033, 2.007e-5, 6.069e-4
0.031, 2.091e-5, 6.110e-4
0.029, 2.238e-5, 6.153e-4
0.027, 2.126e-5, 6.197e-4
0.025, 1.712e-5, 6.233e-4
0.023, 1.442e-5, 6.263e-4
0.021, 1.628e-5, 6.294e-4
0.019, 2.073e-5, 6.334e-4
0.017, 2.097e-5, 6.376e-4
0.015, 1.985e-5, 6.417e-4
0.013, 1.861e-5, 6.455e-4
0.011, 1.903e-5, 6.492e-4
0.009, 1.754e-5, 6.528e-4
0.007, 2.163e-5, 6.569e-4
0.005, 2.331e-5, 6.616e-4
0.003, 2.050e-5, 6.658e-4
0.001, 1.845e-5, 6.696e-4
-0.001, 1.973e-5, 6.736e-4
-0.003, 2.269e-5, 6.781e-4
-0.005, 1.772e-5, 6.818e-4
-0.007, 1.827e-5, 6.853e-4
-0.009, 2.133e-5, 6.896e-4
-0.011, 1.995e-5, 6.937e-4
-0.013, 2.085e-5, 6.977e-4
-0.015, 2.262e-5, 7.022e-4
-0.017, 1.930e-5, 7.062e-4
-0.019, 1.743e-5, 7.098e-4
-0.021, 1.645e-5, 7.131e-4
-0.023, 1.626e-5, 7.163e-4
-0.025, 2.031e-5, 7.201e-4
-0.027, 1.950e-5, 7.242e-4
-0.029, 1.788e-5, 7.278e-4
-0.031, 1.856e-5, 7.315e-4
-0.033, 1.804e-5, 7.351e-4
-0.035, 1.857e-5, 7.388e-4
-0.037, 2.036e-5, 7.428e-4
-0.039, 1.933e-5, 7.467e-4
-0.041, 1.874e-5, 7.505e-4
-0.043, 1.962e-5, 7.544e-4
-0.045, 2.363e-5, 7.590e-4
-0.047, 2.324e-5, 7.637e-4
-0.049, 2.640e-5, 7.688e-4
-0.051, 2.343e-5, 7.736e-4
-0.053, 2.319e-5, 7.783e-4
-0.055, 2.215e-5, 7.828e-4
-0.057, 2.058e-5, 7.870e-4
-0.059, 2.085e-5, 7.912e-4
-0.061, 2.151e-5, 7.956e-4
-0.063, 1.894e-5, 7.995e-4
-0.065, 1.837e-5, 8.032e-4
-0.067, 2.279e-5, 8.074e-4
-0.069, 2.106e-5, 8.117e-4
-0.071, 2.201e-5, 8.161e-4
-0.073, 2.324e-5, 8.206e-4
-0.075, 2.392e-5, 8.254e-4
-0.077, 2.469e-5, 8.304e-4
-0.079, 2.270e-5, 8.350e-4
-0.081, 1.863e-5, 8.389e-4
-0.083, 1.802e-5, 8.425e-4
-0.085, 1.637e-5, 8.459e-4
-0.087, 1.616e-5, 8.491e-4
-0.089, 2.296e-5, 8.534e-4
-0.091, 2.333e-5, 8.579e-4
-0.093, 2.101e-5, 8.622e-4
-0.095, 2.074e-5, 8.664e-4
-0.097, 1.863e-5, 8.703e-4
-0.099, 1.649e-5, 8.737e-4
-0.101, 1.633e-5, 8.768e-4
-0.103, 2.163e-5, 8.809e-4
-0.105, 2.047e-5, 8.851e-4
-0.107, 2.261e-5, 8.895e-4
-0.109, 2.019e-5, 8.938e-4
-0.111, 2.238e-5, 8.981e-4
-0.113, 2.173e-5, 9.026e-4
-0.115, 2.120e-5, 9.069e-4
-0.117, 2.222e-5, 9.113e-4
-0.119, 1.951e-5, 9.153e-4
-0.121, 2.092e-5, 9.193e-4
-0.123, 2.095e-5, 9.235e-4
-0.125, 1.747e-5, 9.272e-4
-0.127, 2.328e-5, 9.314e-4
-0.129, 2.537e-5, 9.365e-4
-0.131, 2.144e-5, 9.410e-4
-0.133, 1.852e-5, 9.449e-4
-0.135, 1.962e-5, 9.488e-4
-0.137, 1.787e-5, 9.523e-4
-0.139, 1.845e-5, 9.559e-4
-0.141, 1.718e-5, 9.594e-4
-0.143, 2.279e-5, 9.637e-4
-0.145, 2.199e-5, 9.683e-4
-0.147, 1.813e-5, 9.721e-4
-0.149, 1.593e-5, 9.753e-4
-0.151, 2.157e-5, 9.792e-4
-0.153, 2.128e-5, 9.836e-4
-0.155, 2.082e-5, 9.878e-4
-0.157, 2.146e-5, 9.920e-4
-0.159, 2.329e-5, 9.967e-4
-0.161, 1.969e-5, 1.001e-3
-0.163, 1.626e-5, 1.004e-3
-0.165, 2.042e-5, 1.008e-3
-0.167, 2.196e-5, 1.012e-3
-0.169, 2.054e-5, 1.017e-3
-0.171, 1.928e-5, 1.020e-3
-0.173, 2.215e-5, 1.025e-3
-0.175, 2.515e-5, 1.030e-3
-0.177, 2.169e-5, 1.034e-3
-0.179, 1.978e-5, 1.038e-3
-0.181, 1.927e-5, 1.042e-3
-0.183, 1.738e-5, 1.046e-3
-0.185, 1.931e-5, 1.049e-3
-0.187, 1.914e-5, 1.053e-3
-0.189, 1.799e-5, 1.057e-3
-0.191, 2.110e-5, 1.061e-3
-0.193, 2.180e-5, 1.065e-3
-0.195, 1.751e-5, 1.069e-3
-0.197, 1.597e-5, 1.072e-3
-0.199, 1.550e-5, 1.076e-3
-0.201, 1.797e-5, 1.079e-3
-0.203, 1.703e-5, 1.082e-3
-0.205, 1.773e-5, 1.086e-3
-0.207, 2.023e-5, 1.090e-3
-0.209, 2.221e-5, 1.094e-3
-0.211, 2.375e-5, 1.099e-3
-0.213, 2.193e-5, 1.103e-3
-0.215, 2.063e-5, 1.108e-3
-0.217, 2.144e-5, 1.112e-3
-0.219, 2.222e-5, 1.116e-3
-0.221, 2.531e-5, 1.121e-3
-0.223, 2.536e-5, 1.126e-3
-0.225, 2.113e-5, 1.131e-3
-0.227, 1.880e-5, 1.134e-3
-0.229, 2.101e-5, 1.138e-3
-0.231, 2.075e-5, 1.143e-3
-0.233, 2.024e-5, 1.147e-3
-0.235, 2.140e-5, 1.151e-3
-0.237, 2.251e-5, 1.155e-3
-0.239, 1.859e-5, 1.159e-3
-0.241, 1.881e-5, 1.163e-3
-0.243, 2.002e-5, 1.167e-3
-0.245, 2.048e-5, 1.171e-3
-0.247, 2.122e-5, 1.175e-3
-0.249, 2.219e-5, 1.179e-3
-0.251, 1.979e-5, 1.184e-3
-0.253, 1.647e-5, 1.187e-3
-0.255, 1.645e-5, 1.190e-3
-0.257, 1.889e-5, 1.194e-3
-0.259, 2.465e-5, 1.198e-3
-0.261, 2.211e-5, 1.203e-3
-0.263, 2.009e-5, 1.207e-3
-0.265, 2.216e-5, 1.212e-3
-0.267, 1.998e-5, 1.216e-3
-0.269, 1.814e-5, 1.219e-3
-0.271, 1.726e-5, 1.223e-3
-0.273, 1.632e-5, 1.226e-3
-0.275, 1.567e-5, 1.229e-3
-0.277, 1.657e-5, 1.233e-3
-0.279, 1.749e-5, 1.236e-3
-0.281, 1.894e-5, 1.240e-3
-0.283, 1.877e-5, 1.244e-3
-0.285, 1.889e-5, 1.247e-3
-0.287, 2.123e-5, 1.252e-3
-0.289, 1.916e-5, 1.256e-3
-0.291, 2.040e-5, 1.260e-3
-0.293, 2.198e-5, 1.264e-3
-0.295, 2.093e-5, 1.268e-3
-0.297, 2.226e-5, 1.273e-3
-0.299, 2.142e-5, 1.277e-3