File: 循环伏安/analysis/114514/oxideLSV_str_air.txt
Nov. 2, 2023   13:10:47
Linear Sweep Voltammetry
File: c:\users\dell\desktop\电化学数据\114514\oxidelsv_str_air.txt
Data Source:  Experiment
Instrument Model:  CHI600B
Header:
Note:

Init E (V) = 1.25
Final E (V) = -0.3
Scan Rate (V/s) = 0.01
Sample Interval (V) = 0.001
Quiet Time (sec) = 2
Sensitivity (A/V) = 1e-5

Ep = 0.254V
ip = 2.020e-5A
Ah = 2.055e-4C

Ep = -0.120V
ip = 1.311e-5A
Ah = 1.247e-5C

Potential/V, Current/A, Charge/C

Segment 1:
1.249, -4.238e-6, -4.238e-7
1.247, -2.501e-6, -9.804e-7
1.245, -1.920e-6, -1.388e-6
1.243, -1.602e-6, -1.722e-6
1.241, -1.397e-6, -2.012e-6
1.239, -1.256e-6, -2.269e-6
1.237, -1.141e-6, -2.503e-6
1.235, -1.041e-6, -2.716e-6
1.233, -9.746e-7, -2.914e-6
1.231, -9.030e-7, -3.098e-6
1.229, -8.447e-7, -3.270e-6
1.227, -7.972e-7, -3.432e-6
1.225, -7.525e-7, -3.585e-6
1.223, -7.215e-7, -3.732e-6
1.221, -6.911e-7, -3.871e-6
1.219, -6.521e-7, -4.003e-6
1.217, -6.298e-7, -4.130e-6
1.215, -6.004e-7, -4.251e-6
1.213, -5.864e-7, -4.369e-6
1.211, -5.563e-7, -4.482e-6
1.209, -5.442e-7, -4.591e-6
1.207, -5.155e-7, -4.695e-6
1.205, -5.015e-7, -4.796e-6
1.203, -4.880e-7, -4.894e-6
1.201, -4.648e-7, -4.989e-6
1.199, -4.548e-7, -5.080e-6
1.197, -4.497e-7, -5.170e-6
1.195, -4.346e-7, -5.258e-6
1.193, -4.141e-7, -5.342e-6
1.191, -4.067e-7, -5.423e-6
1.189, -4.037e-7, -5.504e-6
1.187, -3.992e-7, -5.584e-6
1.185, -3.888e-7, -5.663e-6
1.183, -3.753e-7, -5.738e-6
1.181, -3.624e-7, -5.811e-6
1.179, -3.577e-7, -5.883e-6
1.177, -3.542e-7, -5.954e-6
1.175, -3.482e-7, -6.024e-6
1.173, -3.312e-7, -6.091e-6
1.171, -3.072e-7, -6.153e-6
1.169, -2.739e-7, -6.210e-6
1.167, -2.475e-7, -6.260e-6
1.165, -2.231e-7, -6.306e-6
1.163, -2.141e-7, -6.349e-6
1.161, -2.092e-7, -6.391e-6
1.159, -2.063e-7, -6.432e-6
1.157, -2.028e-7, -6.473e-6
1.155, -1.996e-7, -6.513e-6
1.153, -1.926e-7, -6.552e-6
1.151, -1.877e-7, -6.589e-6
1.149, -1.806e-7, -6.626e-6
1.147, -1.762e-7, -6.661e-6
1.145, -1.704e-7, -6.696e-6
1.143, -1.667e-7, -6.729e-6
1.141, -1.641e-7, -6.762e-6
1.139, -1.618e-7, -6.795e-6
1.137, -1.607e-7, -6.827e-6
1.135, -1.600e-7, -6.859e-6
1.133, -1.591e-7, -6.891e-6
1.131, -1.585e-7, -6.922e-6
1.129, -1.563e-7, -6.954e-6
1.127, -1.542e-7, -6.985e-6
1.125, -1.514e-7, -7.015e-6
1.123, -1.476e-7, -7.045e-6
1.121, -1.443e-7, -7.074e-6
1.119, -1.387e-7, -7.102e-6
1.117, -1.374e-7, -7.129e-6
1.115, -1.326e-7, -7.156e-6
1.113, -1.293e-7, -7.182e-6
1.111, -1.243e-7, -7.207e-6
1.109, -1.219e-7, -7.231e-6
1.107, -1.183e-7, -7.255e-6
1.105, -1.172e-7, -7.279e-6
1.103, -1.146e-7, -7.302e-6
1.101, -1.147e-7, -7.325e-6
1.099, -1.135e-7, -7.347e-6
1.097, -1.128e-7, -7.370e-6
1.095, -1.110e-7, -7.392e-6
1.093, -1.108e-7, -7.415e-6
1.091, -1.105e-7, -7.437e-6
1.089, -1.104e-7, -7.459e-6
1.087, -1.084e-7, -7.481e-6
1.085, -1.080e-7, -7.502e-6
1.083, -1.059e-7, -7.524e-6
1.081, -1.059e-7, -7.545e-6
1.079, -1.025e-7, -7.566e-6
1.077, -1.027e-7, -7.586e-6
1.075, -9.911e-8, -7.606e-6
1.073, -9.966e-8, -7.626e-6
1.071, -9.570e-8, -7.646e-6
1.069, -9.360e-8, -7.665e-6
1.067, -9.352e-8, -7.684e-6
1.065, -9.128e-8, -7.702e-6
1.063, -8.817e-8, -7.720e-6
1.061, -8.512e-8, -7.738e-6
1.059, -8.312e-8, -7.754e-6
1.057, -8.014e-8, -7.771e-6
1.055, -7.830e-8, -7.787e-6
1.053, -7.639e-8, -7.802e-6
1.051, -7.598e-8, -7.818e-6
1.049, -7.437e-8, -7.833e-6
1.047, -7.265e-8, -7.848e-6
1.045, -7.149e-8, -7.862e-6
1.043, -6.933e-8, -7.876e-6
1.041, -6.877e-8, -7.890e-6
1.039, -6.793e-8, -7.904e-6
1.037, -6.670e-8, -7.917e-6
1.035, -6.635e-8, -7.930e-6
1.033, -6.544e-8, -7.944e-6
1.031, -6.441e-8, -7.957e-6
1.029, -6.445e-8, -7.970e-6
1.027, -6.339e-8, -7.982e-6
1.025, -6.331e-8, -7.995e-6
1.023, -6.266e-8, -8.008e-6
1.021, -6.254e-8, -8.020e-6
1.019, -6.235e-8, -8.033e-6
1.017, -6.220e-8, -8.045e-6
1.015, -6.209e-8, -8.058e-6
1.013, -6.151e-8, -8.070e-6
1.011, -6.099e-8, -8.082e-6
1.009, -6.041e-8, -8.094e-6
1.007, -5.999e-8, -8.106e-6
1.005, -5.950e-8, -8.118e-6
1.003, -5.922e-8, -8.130e-6
1.001, -5.814e-8, -8.142e-6
0.999, -5.756e-8, -8.153e-6
0.997, -5.717e-8, -8.165e-6
0.995, -5.613e-8, -8.176e-6
0.993, -5.432e-8, -8.187e-6
0.991, -5.334e-8, -8.197e-6
0.989, -5.288e-8, -8.208e-6
0.987, -5.088e-8, -8.218e-6
0.985, -4.920e-8, -8.228e-6
0.983, -4.720e-8, -8.238e-6
0.981, -4.702e-8, -8.247e-6
0.979, -4.451e-8, -8.256e-6
0.977, -4.390e-8, -8.265e-6
0.975, -4.149e-8, -8.273e-6
0.973, -4.145e-8, -8.281e-6
0.971, -3.876e-8, -8.289e-6
0.969, -3.865e-8, -8.297e-6
0.967, -3.620e-8, -8.304e-6
0.965, -3.647e-8, -8.311e-6
0.963, -3.223e-8, -8.318e-6
0.961, -3.210e-8, -8.324e-6
0.959, -2.894e-8, -8.330e-6
0.957, -2.921e-8, -8.336e-6
0.955, -2.657e-8, -8.342e-6
0.953, -2.666e-8, -8.347e-6
0.951, -2.468e-8, -8.352e-6
0.949, -2.472e-8, -8.357e-6
0.947, -2.324e-8, -8.361e-6
0.945, -2.297e-8, -8.366e-6
0.943, -2.075e-8, -8.370e-6
0.941, -2.069e-8, -8.374e-6
0.939, -1.931e-8, -8.378e-6
0.937, -1.854e-8, -8.382e-6
0.935, -1.721e-8, -8.385e-6
0.933, -1.693e-8, -8.389e-6
0.931, -1.628e-8, -8.392e-6
0.929, -1.663e-8, -8.395e-6
0.927, -1.613e-8, -8.399e-6
0.925, -1.529e-8, -8.402e-6
0.923, -1.490e-8, -8.405e-6
0.921, -1.421e-8, -8.407e-6
0.919, -1.407e-8, -8.410e-6
0.917, -1.359e-8, -8.413e-6
0.915, -1.333e-8, -8.416e-6
0.913, -1.298e-8, -8.418e-6
0.911, -1.268e-8, -8.421e-6
0.909, -1.212e-8, -8.423e-6
0.907, -1.162e-8, -8.426e-6
0.905, -1.134e-8, -8.428e-6
0.903, -1.075e-8, -8.430e-6
0.901, -1.035e-8, -8.432e-6
0.899, -1.009e-8, -8.434e-6
0.897, -9.014e-9, -8.436e-6
0.895, -8.479e-9, -8.438e-6
0.893, -7.950e-9, -8.439e-6
0.891, -7.184e-9, -8.441e-6
0.889, -6.266e-9, -8.442e-6
0.887, -5.514e-9, -8.443e-6
0.885, -4.503e-9, -8.444e-6
0.883, -3.935e-9, -8.445e-6
0.881, -2.080e-9, -8.445e-6
0.879, -1.822e-9, -8.445e-6
0.877, 5.025e-10, -8.445e-6
0.875, 4.827e-10, -8.445e-6
0.873, 2.840e-9, -8.445e-6
0.871, 3.263e-9, -8.444e-6
0.869, 4.808e-9, -8.443e-6
0.867, 5.231e-9, -8.442e-6
0.865, 6.869e-9, -8.441e-6
0.863, 7.463e-9, -8.439e-6
0.861, 8.665e-9, -8.437e-6
0.859, 9.365e-9, -8.435e-6
0.857, 1.174e-8, -8.433e-6
0.855, 1.219e-8, -8.430e-6
0.853, 1.396e-8, -8.428e-6
0.851, 1.428e-8, -8.425e-6
0.849, 1.690e-8, -8.421e-6
0.847, 1.696e-8, -8.418e-6
0.845, 1.874e-8, -8.414e-6
0.843, 1.930e-8, -8.410e-6
0.841, 2.117e-8, -8.406e-6
0.839, 2.229e-8, -8.402e-6
0.837, 2.302e-8, -8.397e-6
0.835, 2.405e-8, -8.393e-6
0.833, 2.500e-8, -8.387e-6
0.831, 2.646e-8, -8.382e-6
0.829, 2.652e-8, -8.377e-6
0.827, 2.702e-8, -8.372e-6
0.825, 2.688e-8, -8.366e-6
0.823, 2.954e-8, -8.360e-6
0.821, 2.912e-8, -8.354e-6
0.819, 2.933e-8, -8.349e-6
0.817, 3.005e-8, -8.343e-6
0.815, 3.174e-8, -8.336e-6
0.813, 3.121e-8, -8.330e-6
0.811, 3.214e-8, -8.323e-6
0.809, 3.223e-8, -8.317e-6
0.807, 3.317e-8, -8.310e-6
0.805, 3.308e-8, -8.304e-6
0.803, 3.402e-8, -8.297e-6
0.801, 3.371e-8, -8.290e-6
0.799, 3.447e-8, -8.283e-6
0.797, 3.418e-8, -8.276e-6
0.795, 3.466e-8, -8.270e-6
0.793, 3.449e-8, -8.263e-6
0.791, 3.519e-8, -8.256e-6
0.789, 3.507e-8, -8.249e-6
0.787, 3.554e-8, -8.242e-6
0.785, 3.563e-8, -8.234e-6
0.783, 3.602e-8, -8.227e-6
0.781, 3.608e-8, -8.220e-6
0.779, 3.655e-8, -8.213e-6
0.777, 3.668e-8, -8.205e-6
0.775, 3.737e-8, -8.198e-6
0.773, 3.755e-8, -8.190e-6
0.771, 3.824e-8, -8.183e-6
0.769, 3.848e-8, -8.175e-6
0.767, 3.975e-8, -8.167e-6
0.765, 3.997e-8, -8.159e-6
0.763, 4.129e-8, -8.151e-6
0.761, 4.154e-8, -8.143e-6
0.759, 4.288e-8, -8.134e-6
0.757, 4.338e-8, -8.126e-6
0.755, 4.512e-8, -8.117e-6
0.753, 4.560e-8, -8.107e-6
0.751, 4.752e-8, -8.098e-6
0.749, 4.804e-8, -8.088e-6
0.747, 4.979e-8, -8.078e-6
0.745, 5.119e-8, -8.068e-6
0.743, 5.302e-8, -8.058e-6
0.741, 5.393e-8, -8.047e-6
0.739, 5.518e-8, -8.036e-6
0.737, 5.642e-8, -8.025e-6
0.735, 5.856e-8, -8.013e-6
0.733, 6.078e-8, -8.001e-6
0.731, 6.157e-8, -7.989e-6
0.729, 6.405e-8, -7.976e-6
0.727, 6.439e-8, -7.963e-6
0.725, 6.649e-8, -7.950e-6
0.723, 6.723e-8, -7.936e-6
0.721, 6.982e-8, -7.923e-6
0.719, 7.050e-8, -7.909e-6
0.717, 7.317e-8, -7.894e-6
0.715, 7.258e-8, -7.879e-6
0.713, 7.580e-8, -7.864e-6
0.711, 7.554e-8, -7.849e-6
0.709, 7.786e-8, -7.834e-6
0.707, 7.764e-8, -7.818e-6
0.705, 7.983e-8, -7.802e-6
0.703, 7.983e-8, -7.786e-6
0.701, 8.179e-8, -7.770e-6
0.699, 8.160e-8, -7.754e-6
0.697, 8.349e-8, -7.737e-6
0.695, 8.302e-8, -7.721e-6
0.693, 8.482e-8, -7.704e-6
0.691, 8.404e-8, -7.687e-6
0.689, 8.650e-8, -7.670e-6
0.687, 8.596e-8, -7.652e-6
0.685, 8.800e-8, -7.635e-6
0.683, 8.734e-8, -7.618e-6
0.681, 8.991e-8, -7.600e-6
0.679, 8.931e-8, -7.582e-6
0.677, 9.244e-8, -7.564e-6
0.675, 9.160e-8, -7.546e-6
0.673, 9.484e-8, -7.527e-6
0.671, 9.375e-8, -7.508e-6
0.669, 9.805e-8, -7.489e-6
0.667, 9.653e-8, -7.470e-6
0.665, 1.014e-7, -7.450e-6
0.663, 1.008e-7, -7.430e-6
0.661, 1.046e-7, -7.409e-6
0.659, 1.056e-7, -7.388e-6
0.657, 1.082e-7, -7.367e-6
0.655, 1.105e-7, -7.345e-6
0.653, 1.120e-7, -7.323e-6
0.651, 1.144e-7, -7.300e-6
0.649, 1.156e-7, -7.277e-6
0.647, 1.182e-7, -7.254e-6
0.645, 1.198e-7, -7.230e-6
0.643, 1.211e-7, -7.206e-6
0.641, 1.231e-7, -7.181e-6
0.639, 1.240e-7, -7.157e-6
0.637, 1.262e-7, -7.132e-6
0.635, 1.270e-7, -7.107e-6
0.633, 1.285e-7, -7.081e-6
0.631, 1.295e-7, -7.055e-6
0.629, 1.308e-7, -7.029e-6
0.627, 1.317e-7, -7.003e-6
0.625, 1.326e-7, -6.976e-6
0.623, 1.333e-7, -6.950e-6
0.621, 1.345e-7, -6.923e-6
0.619, 1.354e-7, -6.896e-6
0.617, 1.369e-7, -6.869e-6
0.615, 1.389e-7, -6.841e-6
0.613, 1.405e-7, -6.813e-6
0.611, 1.434e-7, -6.784e-6
0.609, 1.447e-7, -6.756e-6
0.607, 1.492e-7, -6.726e-6
0.605, 1.504e-7, -6.696e-6
0.603, 1.549e-7, -6.665e-6
0.601, 1.565e-7, -6.634e-6
0.599, 1.610e-7, -6.602e-6
0.597, 1.624e-7, -6.569e-6
0.595, 1.672e-7, -6.536e-6
0.593, 1.690e-7, -6.502e-6
0.591, 1.733e-7, -6.468e-6
0.589, 1.741e-7, -6.433e-6
0.587, 1.771e-7, -6.398e-6
0.585, 1.793e-7, -6.362e-6
0.583, 1.808e-7, -6.326e-6
0.581, 1.823e-7, -6.290e-6
0.579, 1.839e-7, -6.253e-6
0.577, 1.857e-7, -6.216e-6
0.575, 1.885e-7, -6.178e-6
0.573, 1.911e-7, -6.140e-6
0.571, 1.949e-7, -6.101e-6
0.569, 1.997e-7, -6.061e-6
0.567, 2.035e-7, -6.021e-6
0.565, 2.094e-7, -5.979e-6
0.563, 2.125e-7, -5.937e-6
0.561, 2.184e-7, -5.894e-6
0.559, 2.209e-7, -5.850e-6
0.557, 2.255e-7, -5.805e-6
0.555, 2.274e-7, -5.759e-6
0.553, 2.298e-7, -5.713e-6
0.551, 2.314e-7, -5.667e-6
0.549, 2.339e-7, -5.621e-6
0.547, 2.368e-7, -5.573e-6
0.545, 2.428e-7, -5.525e-6
0.543, 2.471e-7, -5.476e-6
0.541, 2.551e-7, -5.425e-6
0.539, 2.589e-7, -5.374e-6
0.537, 2.663e-7, -5.321e-6
0.535, 2.716e-7, -5.267e-6
0.533, 2.775e-7, -5.211e-6
0.531, 2.804e-7, -5.155e-6
0.529, 2.862e-7, -5.099e-6
0.527, 2.895e-7, -5.041e-6
0.525, 3.005e-7, -4.982e-6
0.523, 3.074e-7, -4.921e-6
0.521, 3.149e-7, -4.858e-6
0.519, 3.234e-7, -4.794e-6
0.517, 3.274e-7, -4.729e-6
0.515, 3.315e-7, -4.663e-6
0.513, 3.408e-7, -4.595e-6
0.511, 3.526e-7, -4.525e-6
0.509, 3.636e-7, -4.453e-6
0.507, 3.742e-7, -4.378e-6
0.505, 3.802e-7, -4.303e-6
0.503, 3.902e-7, -4.225e-6
0.501, 4.048e-7, -4.145e-6
0.499, 4.213e-7, -4.061e-6
0.497, 4.273e-7, -3.976e-6
0.495, 4.392e-7, -3.889e-6
0.493, 4.572e-7, -3.798e-6
0.491, 4.743e-7, -3.704e-6
0.489, 4.883e-7, -3.607e-6
0.487, 5.114e-7, -3.506e-6
0.485, 5.241e-7, -3.402e-6
0.483, 5.461e-7, -3.295e-6
0.481, 5.684e-7, -3.182e-6
0.479, 5.926e-7, -3.065e-6
0.477, 6.179e-7, -2.943e-6
0.475, 6.399e-7, -2.816e-6
0.473, 6.708e-7, -2.684e-6
0.471, 7.066e-7, -2.545e-6
0.469, 7.350e-7, -2.399e-6
0.467, 7.747e-7, -2.246e-6
0.465, 8.141e-7, -2.085e-6
0.463, 8.597e-7, -1.916e-6
0.461, 9.077e-7, -1.737e-6
0.459, 9.564e-7, -1.549e-6
0.457, 1.008e-6, -1.350e-6
0.455, 1.068e-6, -1.139e-6
0.453, 1.125e-6, -9.176e-7
0.451, 1.209e-6, -6.803e-7
0.449, 1.290e-6, -4.268e-7
0.447, 1.371e-6, -1.575e-7
0.445, 1.450e-6, 1.282e-7
0.443, 1.551e-6, 4.337e-7
0.441, 1.646e-6, 7.576e-7
0.439, 1.762e-6, 1.104e-6
0.437, 1.881e-6, 1.474e-6
0.435, 2.007e-6, 1.869e-6
0.433, 2.135e-6, 2.290e-6
0.431, 2.291e-6, 2.740e-6
0.429, 2.443e-6, 3.221e-6
0.427, 2.605e-6, 3.734e-6
0.425, 2.792e-6, 4.283e-6
0.423, 2.984e-6, 4.870e-6
0.421, 3.187e-6, 5.498e-6
0.419, 3.400e-6, 6.167e-6
0.417, 3.636e-6, 6.882e-6
0.415, 3.864e-6, 7.643e-6
0.413, 4.140e-6, 8.457e-6
0.411, 4.428e-6, 9.327e-6
0.409, 4.683e-6, 1.025e-5
0.407, 4.941e-6, 1.123e-5
0.405, 5.250e-6, 1.226e-5
0.403, 5.541e-6, 1.336e-5
0.401, 5.811e-6, 1.450e-5
0.399, 6.119e-6, 1.571e-5
0.397, 6.480e-6, 1.699e-5
0.395, 6.760e-6, 1.833e-5
0.393, 7.093e-6, 1.973e-5
0.391, 7.377e-6, 2.119e-5
0.389, 7.770e-6, 2.273e-5
0.387, 8.462e-6, 2.437e-5
0.385, 8.901e-6, 2.614e-5
0.383, 8.895e-6, 2.792e-5
0.381, 8.993e-6, 2.972e-5
0.379, 9.545e-6, 3.159e-5
0.377, 9.619e-6, 3.352e-5
0.375, 9.681e-6, 3.545e-5
0.373, 9.798e-6, 3.740e-5
0.371, 1.040e-5, 3.944e-5
0.369, 1.099e-5, 4.161e-5
0.367, 1.172e-5, 4.391e-5
0.365, 1.418e-5, 4.657e-5
0.363, 1.292e-5, 4.924e-5
0.361, 1.212e-5, 5.169e-5
0.359, 1.206e-5, 5.412e-5
0.357, 1.217e-5, 5.653e-5
0.355, 1.181e-5, 5.891e-5
0.353, 1.285e-5, 6.142e-5
0.351, 1.344e-5, 6.413e-5
0.349, 1.229e-5, 6.664e-5
0.347, 1.266e-5, 6.911e-5
0.345, 1.451e-5, 7.192e-5
0.343, 1.494e-5, 7.493e-5
0.341, 1.372e-5, 7.770e-5
0.339, 1.358e-5, 8.041e-5
0.337, 1.485e-5, 8.335e-5
0.335, 1.470e-5, 8.633e-5
0.333, 1.406e-5, 8.914e-5
0.331, 1.367e-5, 9.187e-5
0.329, 1.758e-5, 9.512e-5
0.327, 1.644e-5, 9.848e-5
0.325, 1.525e-5, 1.015e-4
0.323, 1.542e-5, 1.047e-4
0.321, 1.450e-5, 1.076e-4
0.319, 1.488e-5, 1.105e-4
0.317, 1.816e-5, 1.140e-4
0.315, 1.822e-5, 1.177e-4
0.313, 1.538e-5, 1.208e-4
0.311, 1.648e-5, 1.241e-4
0.309, 1.611e-5, 1.273e-4
0.307, 2.037e-5, 1.313e-4
0.305, 1.800e-5, 1.349e-4
0.303, 1.694e-5, 1.383e-4
0.301, 1.744e-5, 1.418e-4
0.299, 1.590e-5, 1.451e-4
0.297, 1.365e-5, 1.479e-4
0.295, 1.296e-5, 1.505e-4
0.293, 1.380e-5, 1.532e-4
0.291, 1.521e-5, 1.563e-4
0.289, 1.550e-5, 1.594e-4
0.287, 1.579e-5, 1.625e-4
0.285, 1.552e-5, 1.657e-4
0.283, 1.550e-5, 1.688e-4
0.281, 1.576e-5, 1.720e-4
0.279, 1.396e-5, 1.748e-4
0.277, 1.384e-5, 1.776e-4
0.275, 1.564e-5, 1.806e-4
0.273, 1.871e-5, 1.842e-4
0.271, 1.678e-5, 1.876e-4
0.269, 1.546e-5, 1.908e-4
0.267, 1.393e-5, 1.937e-4
0.265, 1.499e-5, 1.966e-4
0.263, 1.691e-5, 2.000e-4
0.261, 1.622e-5, 2.033e-4
0.259, 1.485e-5, 2.064e-4
0.257, 1.459e-5, 2.092e-4
0.255, 1.827e-5, 2.125e-4
0.253, 1.827e-5, 2.164e-4
0.251, 1.563e-5, 2.196e-4
0.249, 1.484e-5, 2.226e-4
0.247, 1.543e-5, 2.257e-4
0.245, 1.464e-5, 2.286e-4
0.243, 1.653e-5, 2.319e-4
0.241, 1.519e-5, 2.350e-4
0.239, 1.423e-5, 2.379e-4
0.237, 1.343e-5, 2.406e-4
0.235, 1.317e-5, 2.432e-4
0.233, 1.433e-5, 2.460e-4
0.231, 1.474e-5, 2.490e-4
0.229, 1.822e-5, 2.525e-4
0.227, 1.534e-5, 2.556e-4
0.225, 1.429e-5, 2.585e-4
0.223, 1.533e-5, 2.615e-4
0.221, 1.481e-5, 2.645e-4
0.219, 1.766e-5, 2.678e-4
0.217, 1.533e-5, 2.711e-4
0.215, 1.515e-5, 2.740e-4
0.213, 1.566e-5, 2.773e-4
0.211, 1.568e-5, 2.804e-4
0.209, 1.572e-5, 2.834e-4
0.207, 1.491e-5, 2.865e-4
0.205, 1.449e-5, 2.894e-4
0.203, 1.567e-5, 2.926e-4
0.201, 1.854e-5, 2.961e-4
0.199, 1.564e-5, 2.993e-4
0.197, 1.592e-5, 3.025e-4
0.195, 2.458e-5, 3.072e-4
0.193, 1.990e-5, 3.116e-4
0.191, 1.782e-5, 3.152e-4
0.189, 1.669e-5, 3.187e-4
0.187, 1.520e-5, 3.218e-4
0.185, 1.479e-5, 3.248e-4
0.183, 1.404e-5, 3.276e-4
0.181, 1.652e-5, 3.308e-4
0.179, 1.549e-5, 3.339e-4
0.177, 1.777e-5, 3.373e-4
0.175, 1.766e-5, 3.409e-4
0.173, 1.833e-5, 3.444e-4
0.171, 1.558e-5, 3.477e-4
0.169, 1.477e-5, 3.506e-4
0.167, 1.649e-5, 3.539e-4
0.165, 1.861e-5, 3.575e-4
0.163, 1.785e-5, 3.612e-4
0.161, 1.662e-5, 3.645e-4
0.159, 1.805e-5, 3.680e-4
0.157, 1.631e-5, 3.714e-4
0.155, 1.506e-5, 3.744e-4
0.153, 1.475e-5, 3.775e-4
0.151, 1.676e-5, 3.806e-4
0.149, 2.395e-5, 3.852e-4
0.147, 2.198e-5, 3.896e-4
0.145, 2.142e-5, 3.941e-4
0.143, 1.590e-5, 3.976e-4
0.141, 1.647e-5, 4.008e-4
0.139, 1.749e-5, 4.041e-4
0.137, 1.587e-5, 4.074e-4
0.135, 1.406e-5, 4.102e-4
0.133, 1.466e-5, 4.131e-4
0.131, 1.471e-5, 4.160e-4
0.129, 1.525e-5, 4.190e-4
0.127, 1.893e-5, 4.226e-4
0.125, 2.083e-5, 4.268e-4
0.123, 1.872e-5, 4.306e-4
0.121, 1.755e-5, 4.341e-4
0.119, 1.952e-5, 4.379e-4
0.117, 1.983e-5, 4.418e-4
0.115, 1.794e-5, 4.456e-4
0.113, 2.255e-5, 4.498e-4
0.111, 1.612e-5, 4.533e-4
0.109, 1.449e-5, 4.563e-4
0.107, 1.603e-5, 4.593e-4
0.105, 1.515e-5, 4.625e-4
0.103, 1.483e-5, 4.655e-4
0.101, 1.451e-5, 4.683e-4
0.099, 1.627e-5, 4.715e-4
0.097, 1.648e-5, 4.749e-4
0.095, 1.485e-5, 4.779e-4
0.093, 1.459e-5, 4.808e-4
0.091, 1.390e-5, 4.836e-4
0.089, 1.351e-5, 4.863e-4
0.087, 1.679e-5, 4.896e-4
0.085, 1.702e-5, 4.930e-4
0.083, 1.537e-5, 4.962e-4
0.081, 1.511e-5, 4.993e-4
0.079, 1.908e-5, 5.030e-4
0.077, 1.899e-5, 5.068e-4
0.075, 1.609e-5, 5.102e-4
0.073, 1.783e-5, 5.136e-4
0.071, 1.603e-5, 5.170e-4
0.069, 1.487e-5, 5.200e-4
0.067, 1.640e-5, 5.231e-4
0.065, 1.729e-5, 5.265e-4
0.063, 1.827e-5, 5.301e-4
0.061, 1.701e-5, 5.337e-4
0.059, 1.629e-5, 5.368e-4
0.057, 1.530e-5, 5.401e-4
0.055, 1.510e-5, 5.430e-4
0.053, 1.713e-5, 5.464e-4
0.051, 1.722e-5, 5.499e-4
0.049, 1.591e-5, 5.531e-4
0.047, 1.613e-5, 5.564e-4
0.045, 1.444e-5, 5.593e-4
0.043, 1.601e-5, 5.625e-4
0.041, 1.914e-5, 5.661e-4
0.039, 1.782e-5, 5.698e-4
0.037, 1.555e-5, 5.730e-4
0.035, 1.387e-5, 5.758e-4
0.033, 1.705e-5, 5.791e-4
0.031, 1.634e-5, 5.825e-4
0.029, 1.423e-5, 5.854e-4
0.027, 1.395e-5, 5.881e-4
0.025, 1.569e-5, 5.913e-4
0.023, 1.864e-5, 5.948e-4
0.021, 1.973e-5, 5.987e-4
0.019, 1.617e-5, 6.021e-4
0.017, 1.726e-5, 6.054e-4
0.015, 1.948e-5, 6.093e-4
0.013, 1.798e-5, 6.129e-4
0.011, 1.555e-5, 6.161e-4
0.009, 1.506e-5, 6.191e-4
0.007, 1.654e-5, 6.223e-4
0.005, 1.468e-5, 6.253e-4
0.003, 1.542e-5, 6.283e-4
0.001, 1.499e-5, 6.313e-4
-0.001, 1.571e-5, 6.344e-4
-0.003, 2.036e-5, 6.381e-4
-0.005, 2.013e-5, 6.421e-4
-0.007, 1.676e-5, 6.457e-4
-0.009, 1.679e-5, 6.490e-4
-0.011, 1.444e-5, 6.520e-4
-0.013, 1.573e-5, 6.551e-4
-0.015, 1.868e-5, 6.585e-4
-0.017, 1.737e-5, 6.621e-4
-0.019, 1.653e-5, 6.654e-4
-0.021, 1.558e-5, 6.686e-4
-0.023, 1.921e-5, 6.723e-4
-0.025, 1.789e-5, 6.759e-4
-0.027, 1.504e-5, 6.791e-4
-0.029, 1.569e-5, 6.822e-4
-0.031, 1.593e-5, 6.854e-4
-0.033, 1.893e-5, 6.889e-4
-0.035, 1.559e-5, 6.922e-4
-0.037, 1.484e-5, 6.952e-4
-0.039, 1.608e-5, 6.983e-4
-0.041, 1.900e-5, 7.021e-4
-0.043, 1.880e-5, 7.057e-4
-0.045, 2.274e-5, 7.103e-4
-0.047, 1.749e-5, 7.140e-4
-0.049, 1.559e-5, 7.172e-4
-0.051, 1.678e-5, 7.205e-4
-0.053, 2.039e-5, 7.243e-4
-0.055, 2.181e-5, 7.286e-4
-0.057, 1.969e-5, 7.327e-4
-0.059, 1.979e-5, 7.366e-4
-0.061, 1.738e-5, 7.403e-4
-0.063, 1.598e-5, 7.435e-4
-0.065, 1.967e-5, 7.471e-4
-0.067, 1.915e-5, 7.511e-4
-0.069, 2.191e-5, 7.554e-4
-0.071, 1.782e-5, 7.592e-4
-0.073, 1.611e-5, 7.625e-4
-0.075, 1.839e-5, 7.661e-4
-0.077, 1.806e-5, 7.698e-4
-0.079, 1.659e-5, 7.732e-4
-0.081, 1.843e-5, 7.768e-4
-0.083, 1.604e-5, 7.802e-4
-0.085, 1.629e-5, 7.834e-4
-0.087, 1.917e-5, 7.872e-4
-0.089, 1.778e-5, 7.907e-4
-0.091, 1.812e-5, 7.945e-4
-0.093, 1.789e-5, 7.980e-4
-0.095, 1.873e-5, 8.019e-4
-0.097, 1.857e-5, 8.055e-4
-0.099, 1.851e-5, 8.093e-4
-0.101, 1.819e-5, 8.129e-4
-0.103, 2.277e-5, 8.172e-4
-0.105, 2.038e-5, 8.215e-4
-0.107, 1.870e-5, 8.253e-4
-0.109, 1.906e-5, 8.290e-4
-0.111, 1.770e-5, 8.326e-4
-0.113, 2.490e-5, 8.371e-4
-0.115, 2.445e-5, 8.423e-4
-0.117, 1.835e-5, 8.462e-4
-0.119, 2.795e-5, 8.509e-4
-0.121, 2.707e-5, 8.566e-4
-0.123, 1.953e-5, 8.607e-4
-0.125, 2.622e-5, 8.655e-4
-0.127, 2.636e-5, 8.709e-4
-0.129, 2.022e-5, 8.752e-4
-0.131, 2.361e-5, 8.794e-4
-0.133, 2.979e-5, 8.851e-4
-0.135, 2.208e-5, 8.898e-4
-0.137, 2.052e-5, 8.939e-4
-0.139, 2.263e-5, 8.985e-4
-0.141, 2.556e-5, 9.035e-4
-0.143, 2.531e-5, 9.087e-4
-0.145, 2.794e-5, 9.144e-4
-0.147, 2.001e-5, 9.187e-4
-0.149, 1.954e-5, 9.226e-4
-0.151, 1.918e-5, 9.264e-4
-0.153, 1.855e-5, 9.303e-4
-0.155, 1.859e-5, 9.340e-4
-0.157, 1.734e-5, 9.376e-4
-0.159, 2.145e-5, 9.415e-4
-0.161, 1.878e-5, 9.456e-4
-0.163, 1.692e-5, 9.490e-4
-0.165, 1.749e-5, 9.525e-4
-0.167, 1.839e-5, 9.561e-4
-0.169, 1.858e-5, 9.599e-4
-0.171, 2.115e-5, 9.639e-4
-0.173, 2.052e-5, 9.682e-4
-0.175, 2.129e-5, 9.722e-4
-0.177, 1.978e-5, 9.764e-4
-0.179, 2.068e-5, 9.804e-4
-0.181, 2.154e-5, 9.848e-4
-0.183, 1.917e-5, 9.888e-4
-0.185, 1.887e-5, 9.925e-4
-0.187, 2.159e-5, 9.969e-4
-0.189, 1.902e-5, 1.001e-3
-0.191, 2.328e-5, 1.005e-3
-0.193, 2.308e-5, 1.010e-3
-0.195, 1.987e-5, 1.014e-3
-0.197, 1.802e-5, 1.018e-3
-0.199, 1.811e-5, 1.021e-3
-0.201, 2.868e-5, 1.027e-3
-0.203, 2.259e-5, 1.031e-3
-0.205, 1.911e-5, 1.035e-3
-0.207, 1.796e-5, 1.039e-3
-0.209, 2.278e-5, 1.043e-3
-0.211, 1.945e-5, 1.047e-3
-0.213, 1.785e-5, 1.051e-3
-0.215, 1.764e-5, 1.054e-3
-0.217, 1.859e-5, 1.058e-3
-0.219, 1.945e-5, 1.062e-3
-0.221, 1.963e-5, 1.066e-3
-0.223, 2.345e-5, 1.070e-3
-0.225, 2.083e-5, 1.074e-3
-0.227, 2.009e-5, 1.079e-3
-0.229, 1.772e-5, 1.082e-3
-0.231, 1.727e-5, 1.086e-3
-0.233, 2.108e-5, 1.090e-3
-0.235, 2.345e-5, 1.094e-3
-0.237, 2.093e-5, 1.099e-3
-0.239, 2.279e-5, 1.103e-3
-0.241, 1.897e-5, 1.107e-3
-0.243, 1.880e-5, 1.111e-3
-0.245, 1.980e-5, 1.115e-3
-0.247, 2.129e-5, 1.119e-3
-0.249, 1.967e-5, 1.123e-3
-0.251, 2.040e-5, 1.127e-3
-0.253, 2.021e-5, 1.131e-3
-0.255, 1.879e-5, 1.135e-3
-0.257, 1.710e-5, 1.139e-3
-0.259, 1.879e-5, 1.142e-3
-0.261, 1.958e-5, 1.146e-3
-0.263, 1.864e-5, 1.150e-3
-0.265, 1.724e-5, 1.153e-3
-0.267, 2.011e-5, 1.157e-3
-0.269, 2.138e-5, 1.162e-3
-0.271, 1.844e-5, 1.165e-3
-0.273, 2.001e-5, 1.169e-3
-0.275, 1.985e-5, 1.173e-3
-0.277, 1.821e-5, 1.177e-3
-0.279, 1.791e-5, 1.181e-3
-0.281, 1.693e-5, 1.184e-3
-0.283, 1.910e-5, 1.188e-3
-0.285, 1.767e-5, 1.191e-3
-0.287, 1.631e-5, 1.195e-3
-0.289, 1.725e-5, 1.198e-3
-0.291, 2.136e-5, 1.202e-3
-0.293, 1.822e-5, 1.206e-3
-0.295, 1.661e-5, 1.209e-3
-0.297, 1.517e-5, 1.212e-3
-0.299, 1.619e-5, 1.216e-3